SensorId, TimeStamp (s), FrameNumber, AccX (g), AccY (g), AccZ (g), GyroX (deg/s), GyroY (deg/s), GyroZ (deg/s), MagX (uT), MagY (uT), MagZ (uT), EulerX (deg), EulerY (deg), EulerZ (deg), QuatW, QuatX, QuatY, QuatZ, LinAccX (g), LinAccY (g), LinAccZ (g), Pressure (kPa), Altitude (m), Temperature (degC), HeaveMotion (m)
3, 0.0000, 0, 0.96243405, 0.01636206, -0.27182776, -0.00000009, 0.00000004, -0.00000006, 0.00000000, 0.00000000, 0.00000000, -3.70703816, 74.16368103, 3.97632837, 0.79609996, 0.04670000, -0.60130000, -0.04710000, 0.00000000, 0.00000000, 0.00000000, 0.00000000, 0.00000000, 0.00000000, 0.00000000
3, 0.0100, 1, 0.96142322, 0.01734748, -0.27182791, -0.00000009, 0.00000004, -0.00000006, 0.00000000, 0.00000000, 0.00000000, -3.70703816, 74.16368103, 3.97632837, 0.79609996, 0.04670000, -0.60130000, -0.04710000, 0.00000000, 0.00000000, 0.00000000, 0.00000000, 0.00000000, 0.00000000, 0.00000000
2, -0.0001, 0, -0.67332542, -0.39425522, -0.65888226, 0.57311821, 7.58842087, -12.73832512, 0.00000000, 0.00000000, 0.00000000, 32.89351654, -38.15327072, -132.72572327, 0.44810000, 0.17979999, 0.37079999, 0.79319996, 0.05400000, -0.03100000, 0.00000000, 0.00000000, 0.00000000, 0.00000000, 0.00000000
3, 0.0200, 2, 0.96242476, 0.01735642, -0.27181911, -0.00000009, 0.00000004, -0.00000006, 0.00000000, 0.00000000, 0.00000000, -3.70703816, 74.16368103, 3.97632837, 0.79609996, 0.04670000, -0.60139996, -0.04710000, 0.00000000, 0.00000000, 0.00000000, 0.00000000, 0.00000000, 0.00000000, 0.00000000
1, -0.0000, 0, -0.14495152, 0.05985140, -0.98277676, 1.69351673, 12.26071930, -1.89458966, 0.00000000, 0.00000000, 0.00000000, -3.51223230, -6.72652674, 77.03420258, -0.78169996, 0.01260000, -0.06490000, 0.62000000, 0.02700000, 0.00000000, -0.00700000, 0.00000000, 0.00000000, 0.00000000, 0.00000000
3, 0.0300, 3, 0.96242476, 0.01735642, -0.27181911, -0.00000009, 0.00000004, -0.00000006, 0.00000000, 0.00000000, 0.00000000, -3.70703816, 74.16368103, 3.97632837, 0.79609996, 0.04670000, -0.60130000, -0.04710000, 0.00000000, 0.00000000, 0.00100000, 0.00000000, 0.00000000, 0.00000000, 0.00000000
2, 0.0099, 1, -0.65813124, -0.40209538, -0.67378575, 0.41958916, 5.90065432, -13.96001148, 0.00000000, 0.00000000, 0.00000000, 32.96227264, -38.02722168, -132.83457947, 0.44739997, 0.17899999, 0.37079999, 0.79380000, 0.04200000, -0.02500000, 0.01300000, 0.00000000, 0.00000000, 0.00000000, 0.00000000
1, 0.0100, 1, -0.10688911, 0.04386959, -0.98445714, 1.16446757, 15.12715054, -2.87184572, 0.00000000, 0.00000000, 0.00000000, -3.49504352, -6.57755756, 76.99982452, -0.78200001, 0.01180000, -0.06380000, 0.61979997, -0.00800000, 0.01600000, -0.00600000, 0.00000000, 0.00000000, 0.00000000, 0.00000000
2, 0.0199, 2, -0.62123257, -0.41611636, -0.67536706, -0.32675084, 1.36173320, -14.69643879, 0.00000000, 0.00000000, 0.00000000, 33.04821777, -37.93554688, -132.97781372, 0.44639999, 0.17839999, 0.37090001, 0.79439998, 0.00600000, -0.01300000, 0.01400000, 0.00000000, 0.00000000, 0.00000000, 0.00000000
1, 0.0200, 2, -0.06879807, 0.05688713, -0.99086654, 1.00327408, 13.41287136, -3.05152297, 0.00000000, 0.00000000, 0.00000000, -3.47785497, -6.44577742, 76.95398712, -0.78230000, 0.01120000, -0.06280000, 0.61960000, -0.04300000, 0.00200000, 0.00000000, 0.00000000, 0.00000000, 0.00000000, 0.00000000
3, 0.0400, 4, 0.96142322, 0.01734748, -0.27182791, -0.00000009, 0.00000004, -0.00000006, 0.00000000, 0.00000000, 0.00000000, -3.70703816, 74.16368103, 3.97632837, 0.79609996, 0.04670000, -0.60130000, -0.04710000, 0.00000000, 0.00000000, 0.00000000, 0.00000000, 0.00000000, 0.00000000, 0.00000000
2, 0.0299, 3, -0.57958221, -0.41934648, -0.66270381, -1.46155703, -4.97938490, -16.60166168, 0.00000000, 0.00000000, 0.00000000, 33.16280746, -37.88398361, -133.18981934, 0.44509998, 0.17829999, 0.37129998, 0.79509997, -0.03400000, -0.01100000, 0.00100000, 0.00000000, 0.00000000, 0.00000000, 0.00000000
1, 0.0300, 3, -0.05058110, 0.05095495, -1.00365400, 0.16833510, 9.93303108, -4.22356939, 0.00000000, 0.00000000, 0.00000000, -3.47212529, -6.34264469, 76.89669037, -0.78259999, 0.01070000, -0.06210000, 0.61919999, -0.06000000, 0.00800000, 0.01200000, 0.00000000, 0.00000000, 0.00000000, 0.00000000
1, 0.0400, 4, -0.08674201, 0.04191341, -0.99320197, -0.82713538, 6.01955605, -1.95021057, 0.00000000, 0.00000000, 0.00000000, -3.47212529, -6.27961969, 76.87377167, -0.78270000, 0.01030000, -0.06170000, 0.61909997, -0.02200000, 0.01700000, 0.00100000, 0.00000000, 0.00000000, 0.00000000, 0.00000000
3, 0.0500, 5, 0.96242476, 0.01735642, -0.27181911, -0.00000009, 0.00000004, -0.00000006, 0.00000000, 0.00000000, 0.00000000, -3.71276784, 74.16368103, 3.97059870, 0.79609996, 0.04670000, -0.60130000, -0.04710000, 0.00000000, 0.00000000, 0.00000000, 0.00000000, 0.00000000, 0.00000000, 0.00000000
2, 0.0399, 4, -0.56292653, -0.42655647, -0.64545685, -1.60504782, -11.21019936, -18.31837273, 0.00000000, 0.00000000, 0.00000000, 33.31177521, -37.87825012, -133.45910645, 0.44340000, 0.17850000, 0.37189999, 0.79569995, -0.05100000, -0.00600000, -0.01300000, 0.00000000, 0.00000000, 0.00000000, 0.00000000
1, 0.0500, 5, -0.11694229, 0.05585047, -0.98247957, -1.45939684, 4.29982615, -1.73465586, 0.00000000, 0.00000000, 0.00000000, -3.48358440, -6.23951244, 76.85085297, -0.78279996, 0.01000000, -0.06150000, 0.61899996, 0.00800000, 0.00400000, -0.00800000, 0.00000000, 0.00000000, 0.00000000, 0.00000000
3, 0.0600, 6, 0.96242476, 0.01735642, -0.27181911, -0.00000009, 0.00000004, -0.00000006, 0.00000000, 0.00000000, 0.00000000, -3.70703816, 74.16368103, 3.97632837, 0.79609996, 0.04670000, -0.60130000, -0.04710000, 0.00000000, 0.00000000, 0.00000000, 0.00000000, 0.00000000, 0.00000000, 0.00000000
2, 0.0499, 5, -0.58307129, -0.42764974, -0.63273567, -2.37779164, -15.15235043, -20.88827515, 0.00000000, 0.00000000, 0.00000000, 33.48939514, -37.88971329, -133.79141235, 0.44139999, 0.17899999, 0.37259999, 0.79629999, -0.03000000, -0.00600000, -0.02500000, 0.00000000, 0.00000000, 0.00000000, 0.00000000
1, 0.0600, 6, -0.12198289, 0.06083677, -0.98050338, -1.75714457, 6.18954039, -2.13628793, 0.00000000, 0.00000000, 0.00000000, -3.50077319, -6.17648697, 76.82793427, -0.78299999, 0.00950000, -0.06110000, 0.61879998, 0.01400000, 0.00000000, -0.01100000, 0.00000000, 0.00000000, 0.00000000, 0.00000000
3, 0.0700, 7, 0.96142322, 0.01734748, -0.27182791, -0.00000009, 0.00000004, -0.00000006, 0.00000000, 0.00000000, 0.00000000, -3.71276784, 74.16368103, 3.97059870, 0.79609996, 0.04670000, -0.60130000, -0.04710000, 0.00000000, 0.00000000, 0.00000000, 0.00000000, 0.00000000, 0.00000000, 0.00000000
2, 0.0599, 6, -0.60907757, -0.42466292, -0.62708843, -3.03950357, -16.99457550, -23.15278625, 0.00000000, 0.00000000, 0.00000000, 33.68420029, -37.90690231, -134.15237427, 0.43919998, 0.17950000, 0.37340000, 0.79699999, -0.00400000, -0.01100000, -0.02900000, 0.00000000, 0.00000000, 0.00000000, 0.00000000
1, 0.0700, 7, -0.12400769, 0.05683059, -0.97856969, -1.84028780, 9.44571877, -1.84104574, 0.00000000, 0.00000000, 0.00000000, -3.51796198, -6.08481359, 76.80501556, -0.78310001, 0.00890000, -0.06060000, 0.61869997, 0.01800000, 0.00300000, -0.01200000, 0.00000000, 0.00000000, 0.00000000, 0.00000000
3, 0.0800, 8, 0.96142322, 0.01734748, -0.27182791, -0.00000009, 0.00000004, -0.00000006, 0.00000000, 0.00000000, 0.00000000, -3.71276784, 74.16368103, 3.97632837, 0.79609996, 0.04670000, -0.60130000, -0.04710000, 0.00000000, 0.00000000, 0.00000000, 0.00000000, 0.00000000, 0.00000000, 0.00000000
1, 0.0800, 8, -0.13095209, 0.06084827, -0.98260218, -2.39344096, 13.50133801, -1.60818326, 0.00000000, 0.00000000, 0.00000000, -3.54088044, -5.95303345, 76.78209686, -0.78329998, 0.00800000, -0.05980000, 0.61860001, 0.02600000, 0.00000000, -0.00900000, 0.00000000, 0.00000000, 0.00000000, 0.00000000
3, 0.0900, 9, 0.96142322, 0.01734748, -0.27182791, -0.00000009, 0.00000004, -0.00000006, 0.00000000, 0.00000000, 0.00000000, -3.71849704, 74.16368103, 3.96486950, 0.79609996, 0.04670000, -0.60130000, -0.04710000, 0.00000000, 0.00000000, 0.00000000, 0.00000000, 0.00000000, 0.00000000, 0.00000000
2, 0.0699, 7, -0.63415527, -0.42869925, -0.61748791, -3.00879908, -17.87836456, -24.88216400, 0.00000000, 0.00000000, 0.00000000, 33.89046478, -37.91835785, -134.54199219, 0.43680000, 0.18009999, 0.37430000, 0.79780000, 0.02000000, -0.01000000, -0.03700000, 0.00000000, 0.00000000, 0.00000000, 0.00000000
2, 0.0799, 8, -0.65317261, -0.44066623, -0.61289734, -3.51219869, -17.40282059, -26.20711136, 0.00000000, 0.00000000, 0.00000000, 34.10245895, -37.91835785, -134.94306946, 0.43429998, 0.18060000, 0.37509999, 0.79859996, 0.03800000, 0.00000000, -0.03900000, 0.00000000, 0.00000000, 0.00000000, 0.00000000
2, 0.0899, 9, -0.67607611, -0.45255539, -0.61438954, -5.70725822, -16.01149178, -27.83820343, 0.00000000, 0.00000000, 0.00000000, 34.29726410, -37.89543915, -135.35560608, 0.43179998, 0.18099999, 0.37579998, 0.79960001, 0.06100000, 0.00900000, -0.03700000, 0.00000000, 0.00000000, 0.00000000, 0.00000000
1, 0.0900, 9, -0.14567798, 0.06593673, -1.00066566, -2.71411347, 17.72983551, -1.42879832, 0.00000000, 0.00000000, 0.00000000, -3.56379867, -5.78114605, 76.75917816, -0.78340000, 0.00690000, -0.05880000, 0.61849999, 0.04300000, -0.00400000, 0.00700000, 0.00000000, 0.00000000, 0.00000000, 0.00000000
3, 0.1000, 10, 0.96142322, 0.01734748, -0.27182791, -0.00000009, 0.00000004, -0.00000006, 0.00000000, 0.00000000, 0.00000000, -3.71276784, 74.16368103, 3.97632837, 0.79609996, 0.04670000, -0.60130000, -0.04710000, 0.00000000, 0.00000000, 0.00000000, 0.00000000, 0.00000000, 0.00000000, 0.00000000
1, 0.1000, 10, -0.13365084, 0.05994517, -1.00157154, -2.78413272, 19.55932426, -1.42475712, 0.00000000, 0.00000000, 0.00000000, -3.58671713, -5.58634043, 76.73625946, -0.78359997, 0.00570000, -0.05760000, 0.61839998, 0.03500000, 0.00100000, 0.00800000, 0.00000000, 0.00000000, 0.00000000, 0.00000000
3, 0.1100, 11, 0.96142322, 0.01734748, -0.27182791, -0.00000009, 0.00000004, -0.00000006, 0.00000000, 0.00000000, 0.00000000, -3.71276784, 74.15795135, 3.97059870, 0.79609996, 0.04670000, -0.60130000, -0.04710000, 0.00000000, 0.00000000, 0.00000000, 0.00000000, 0.00000000, 0.00000000, 0.00000000
2, 0.0999, 10, -0.69077420, -0.45633453, -0.62971765, -8.34941483, -13.74828815, -30.67539024, 0.00000000, 0.00000000, 0.00000000, 34.46915054, -37.83241272, -135.77384949, 0.42899999, 0.18130000, 0.37619999, 0.80079997, 0.07700001, 0.01000000, -0.02100000, 0.00000000, 0.00000000, 0.00000000, 0.00000000
2, 0.1099, 11, -0.67366910, -0.45825711, -0.63950795, -9.74225044, -13.51000690, -31.32681656, 0.00000000, 0.00000000, 0.00000000, 34.63531113, -37.76939011, -136.19784546, 0.42620000, 0.18159999, 0.37649998, 0.80210000, 0.06100000, 0.01000000, -0.01000000, 0.00000000, 0.00000000, 0.00000000, 0.00000000
1, 0.1100, 11, -0.11951325, 0.04499146, -1.00850785, -3.71675754, 18.92332268, -1.03828084, 0.00000000, 0.00000000, 0.00000000, -3.62109423, -5.39726448, 76.71334076, -0.78380001, 0.00440000, -0.05650000, 0.61839998, 0.02400000, 0.01700000, 0.01500000, 0.00000000, 0.00000000, 0.00000000, 0.00000000
3, 0.1200, 12, 0.96142322, 0.01734748, -0.27182791, -0.00000009, 0.00000004, -0.00000006, 0.00000000, 0.00000000, 0.00000000, -3.70703816, 74.16368103, 3.97632837, 0.79609996, 0.04670000, -0.60130000, -0.04720000, 0.00000000, 0.00000000, 0.00000000, 0.00000000, 0.00000000, 0.00000000, 0.00000000
1, 0.1200, 12, -0.14713576, 0.01712642, -1.02999949, -5.36239243, 17.75767708, 0.65804428, 0.00000000, 0.00000000, 0.00000000, -3.67839026, -5.21964741, 76.70761108, -0.78380001, 0.00310000, -0.05560000, 0.61839998, 0.05500000, 0.04600000, 0.03600000, 0.00000000, 0.00000000, 0.00000000, 0.00000000
3, 0.1300, 13, 0.96142322, 0.01734748, -0.27182791, -0.00000009, 0.00000004, -0.00000006, 0.00000000, 0.00000000, 0.00000000, -3.71276784, 74.16368103, 3.97632837, 0.79609996, 0.04670000, -0.60130000, -0.04710000, 0.00000000, 0.00000000, 0.00000000, 0.00000000, 0.00000000, 0.00000000, 0.00000000
2, 0.1199, 12, -0.64870381, -0.43237677, -0.64184642, -9.34633732, -14.60935307, -33.85625458, 0.00000000, 0.00000000, 0.00000000, 34.81865692, -37.69490433, -136.65620422, 0.42319998, 0.18189999, 0.37689999, 0.80339998, 0.03700000, -0.01700000, -0.00700000, 0.00000000, 0.00000000, 0.00000000, 0.00000000
2, 0.1299, 13, -0.60750020, -0.42626324, -0.66221297, -8.97827244, -18.81146049, -38.07600784, 0.00000000, 0.00000000, 0.00000000, 35.05356598, -37.63187790, -137.18905640, 0.41979998, 0.18230000, 0.37759998, 0.80479997, -0.00200000, -0.02600000, 0.01300000, 0.00000000, 0.00000000, 0.00000000, 0.00000000
1, 0.1300, 13, -0.18090805, -0.02478051, -1.04072678, -7.67990303, 18.46294785, 3.78650522, 0.00000000, 0.00000000, 0.00000000, -3.75287485, -5.03630066, 76.73625946, -0.78369999, 0.00150000, -0.05470000, 0.61860001, 0.09100001, 0.09000000, 0.04700000, 0.00000000, 0.00000000, 0.00000000, 0.00000000
3, 0.1400, 14, 0.96142322, 0.01734748, -0.27182791, -0.00000009, 0.00000004, -0.00000006, 0.00000000, 0.00000000, 0.00000000, -3.70703816, 74.16368103, 3.97632837, 0.79609996, 0.04670000, -0.60130000, -0.04720000, 0.00000000, 0.00000000, 0.00000000, 0.00000000, 0.00000000, 0.00000000, 0.00000000
3, 0.1500, 15, 0.96142322, 0.01734748, -0.27182791, -0.00000009, 0.00000004, -0.00000006, 0.00000000, 0.00000000, 0.00000000, -3.69557881, 74.16368103, 3.98778772, 0.79609996, 0.04670000, -0.60130000, -0.04720000, -0.00100000, 0.00000000, 0.00000000, 0.00000000, 0.00000000, 0.00000000, 0.00000000
2, 0.1399, 14, -0.54768234, -0.43336630, -0.66335970, -10.30538177, -25.68530464, -42.34302902, 0.00000000, 0.00000000, 0.00000000, 35.32859039, -37.59750366, -137.80786133, 0.41579998, 0.18310000, 0.37849998, 0.80629998, -0.06200000, -0.02200000, 0.01700000, 0.00000000, 0.00000000, 0.00000000, 0.00000000
1, 0.1400, 14, -0.20359826, -0.04067210, -1.05906701, -10.38390541, 22.75931740, 7.95383835, 0.00000000, 0.00000000, 0.00000000, -3.86173701, -4.80138779, 76.79928589, -0.78340000, -0.00030000, -0.05370000, 0.61909997, 0.11800001, 0.10700001, 0.06500001, 0.00000000, 0.00000000, 0.00000000, 0.00000000
3, 0.1600, 16, 0.96142322, 0.01734748, -0.27182791, -0.00000009, 0.00000004, -0.00000006, 0.00000000, 0.00000000, 0.00000000, -3.69557881, 74.16368103, 3.99351692, 0.79609996, 0.04670000, -0.60130000, -0.04720000, 0.00000000, 0.00000000, 0.00000000, 0.00000000, 0.00000000, 0.00000000, 0.00000000
2, 0.1499, 15, -0.48294780, -0.43554452, -0.66036063, -10.60540009, -28.66272736, -48.51611328, 0.00000000, 0.00000000, 0.00000000, 35.65517426, -37.55166626, -138.51832581, 0.41130000, 0.18390000, 0.37959999, 0.80799997, -0.12600000, -0.02400000, 0.01500000, 0.00000000, 0.00000000, 0.00000000, 0.00000000
2, 0.1599, 16, -0.49075732, -0.45833108, -0.67076856, -11.74655342, -29.32592773, -53.47798920, 0.00000000, 0.00000000, 0.00000000, 36.00467682, -37.47145081, -139.28034973, 0.40629998, 0.18460000, 0.38059998, 0.80979997, -0.11700001, -0.00500000, 0.02800000, 0.00000000, 0.00000000, 0.00000000, 0.00000000
3, 0.1700, 17, 0.96142322, 0.01734748, -0.27182791, -0.00000009, 0.00000004, -0.00000006, 0.00000000, 0.00000000, 0.00000000, -3.68984914, 74.16368103, 3.99351692, 0.79609996, 0.04660000, -0.60130000, -0.04720000, -0.00100000, 0.00000000, 0.00000000, 0.00000000, 0.00000000, 0.00000000, 0.00000000
1, 0.1500, 15, -0.22479525, -0.03141513, -1.11104488, -14.34190178, 30.87744904, 12.63017654, 0.00000000, 0.00000000, 0.00000000, -4.01643515, -4.48626089, 76.90814972, -0.78279996, -0.00310000, -0.05240000, 0.61989999, 0.14400001, 0.10000000, 0.11700001, 0.00000000, 0.00000000, 0.00000000, 0.00000000
2, 0.1699, 17, -0.56051385, -0.49303353, -0.67223966, -14.30601501, -29.59593391, -54.32377243, 0.00000000, 0.00000000, 0.00000000, 36.33126450, -37.39123917, -140.05384827, 0.40129998, 0.18529999, 0.38149998, 0.81169999, -0.04600000, 0.02400000, 0.03100000, 0.00000000, 0.00000000, 0.00000000, 0.00000000
1, 0.1600, 16, -0.24144146, -0.02098372, -1.19782865, -19.05485535, 34.85859299, 19.12302589, 0.00000000, 0.00000000, 0.00000000, -4.22270012, -4.12529755, 77.07430267, -0.78189999, -0.00630000, -0.05100000, 0.62110001, 0.16700001, 0.09300000, 0.20300001, 0.00000000, 0.00000000, 0.00000000, 0.00000000
3, 0.1800, 18, 0.96242476, 0.01735642, -0.27181911, -0.00000009, 0.00000004, -0.00000006, 0.00000000, 0.00000000, 0.00000000, -3.68411994, 74.16368103, 3.99924660, 0.79609996, 0.04660000, -0.60130000, -0.04720000, 0.00000000, 0.00000000, 0.00000000, 0.00000000, 0.00000000, 0.00000000, 0.00000000
2, 0.1799, 18, -0.65346873, -0.51690876, -0.65689284, -18.79171181, -27.86318588, -52.13984299, 0.00000000, 0.00000000, 0.00000000, 36.58909607, -37.30529404, -140.78724670, 0.39640000, 0.18619999, 0.38200000, 0.81369996, 0.04700000, 0.04400000, 0.01800000, 0.00000000, 0.00000000, 0.00000000, 0.00000000
3, 0.1900, 19, 0.96242476, 0.01735642, -0.27181911, -0.00000009, 0.00000004, -0.00000006, 0.00000000, 0.00000000, 0.00000000, -3.68411994, 74.16368103, 3.99924660, 0.79609996, 0.04660000, -0.60139996, -0.04720000, 0.00000000, 0.00000000, 0.00000000, 0.00000000, 0.00000000, 0.00000000, 0.00000000
1, 0.1700, 17, -0.25202730, 0.00046209, -1.28942633, -25.33767700, 27.27379036, 26.65201187, 0.00000000, 0.00000000, 0.00000000, -4.49199057, -3.83308887, 77.31494904, -0.78059995, -0.00970000, -0.05050000, 0.62279999, 0.18400002, 0.07600001, 0.29500002, 0.00000000, 0.00000000, 0.00000000, 0.00000000
2, 0.1899, 19, -0.73439837, -0.53180045, -0.64527482, -23.35146523, -22.84384727, -49.12717819, 0.00000000, 0.00000000, 0.00000000, 36.75525665, -37.19643021, -141.45759583, 0.39170000, 0.18699999, 0.38189998, 0.81579995, 0.12900001, 0.05600000, 0.00700000, 0.00000000, 0.00000000, 0.00000000, 0.00000000
1, 0.1800, 18, -0.35745651, 0.04864759, -1.33210135, -30.99424744, 25.36773300, 32.53929138, 0.00000000, 0.00000000, 0.00000000, -4.81857681, -3.55233955, 77.62435150, -0.77889997, -0.01330000, -0.05050000, 0.62489998, 0.29400000, 0.03300000, 0.33700001, 0.00000000, 0.00000000, 0.00000000, 0.00000000
2, 0.1999, 20, -0.78923869, -0.55061901, -0.64433187, -27.43337440, -14.97150707, -46.71640015, 0.00000000, 0.00000000, 0.00000000, 36.83546829, -37.03600311, -142.04202271, 0.38740000, 0.18750000, 0.38130000, 0.81799996, 0.18600000, 0.07200000, 0.00600000, 0.00000000, 0.00000000, 0.00000000, 0.00000000
1, 0.1900, 19, -0.32946706, 0.06195348, -1.39541638, -36.32493210, 36.32915497, 38.35242844, 0.00000000, 0.00000000, 0.00000000, -5.20245838, -3.15699840, 77.97384644, -0.77689999, -0.01790000, -0.04990000, 0.62729996, 0.27200001, 0.02500000, 0.40100002, 0.00000000, 0.00000000, 0.00000000, 0.00000000
3, 0.2000, 20, 0.96242476, 0.01735642, -0.27181911, -0.00000009, 0.00000004, -0.00000006, 0.00000000, 0.00000000, 0.00000000, -3.67839026, 74.16368103, 4.00497627, 0.79609996, 0.04660000, -0.60130000, -0.04720000, -0.00100000, 0.00000000, 0.00000000, 0.00000000, 0.00000000, 0.00000000, 0.00000000
2, 0.2099, 21, -0.81981820, -0.58121842, -0.66421562, -32.02980042, -6.63323832, -44.99909210, 0.00000000, 0.00000000, 0.00000000, 36.81254959, -36.81827927, -142.54048157, 0.38349998, 0.18750000, 0.37989998, 0.82049996, 0.22000001, 0.10200001, 0.02400000, 0.00000000, 0.00000000, 0.00000000, 0.00000000
1, 0.2000, 20, -0.27286083, 0.07913049, -1.43444777, -42.41771317, 37.79022598, 44.75984955, 0.00000000, 0.00000000, 0.00000000, -5.64936590, -2.73873901, 78.38637543, -0.77449995, -0.02310000, -0.04960000, 0.63000000, 0.22300000, 0.01500000, 0.44100001, 0.00000000, 0.00000000, 0.00000000, 0.00000000
1, 0.2100, 21, -0.26964781, 0.11118704, -1.45106816, -49.66539383, 33.10784912, 53.37450409, 0.00000000, 0.00000000, 0.00000000, -6.17075729, -2.34912753, 78.88484955, -0.77160001, -0.02850000, -0.05000000, 0.63330001, 0.22600001, -0.00700000, 0.45800003, 0.00000000, 0.00000000, 0.00000000, 0.00000000
3, 0.2100, 21, 0.96242476, 0.01735642, -0.27181911, -0.00000009, 0.00000004, -0.00000006, 0.00000000, 0.00000000, 0.00000000, -3.68411994, 74.16368103, 3.99924660, 0.79609996, 0.04660000, -0.60139996, -0.04720000, 0.00000000, 0.00000000, 0.00000000, 0.00000000, 0.00000000, 0.00000000, 0.00000000
2, 0.2199, 22, -0.84293687, -0.58958495, -0.71284997, -38.88028336, -0.43162170, -44.82667923, 0.00000000, 0.00000000, 0.00000000, 36.69795990, -36.55472183, -142.99311829, 0.37959999, 0.18740000, 0.37790000, 0.82330000, 0.24600001, 0.11000001, 0.07000000, 0.00000000, 0.00000000, 0.00000000, 0.00000000
1, 0.2200, 22, -0.27276790, 0.16213211, -1.44866967, -54.92915726, 28.37838936, 61.67419815, 0.00000000, 0.00000000, 0.00000000, -6.73798561, -1.99962330, 79.46353912, -0.76819998, -0.03400000, -0.05100000, 0.63720000, 0.23500001, -0.04900000, 0.45600003, 0.00000000, 0.00000000, 0.00000000, 0.00000000
3, 0.2200, 22, 0.96242476, 0.01735642, -0.27181911, -0.00000009, 0.00000004, -0.00000006, 0.00000000, 0.00000000, 0.00000000, -3.68411994, 74.16368103, 3.99924660, 0.79609996, 0.04660000, -0.60139996, -0.04720000, 0.00000000, 0.00000000, 0.00000000, 0.00000000, 0.00000000, 0.00000000, 0.00000000
2, 0.2299, 23, -0.86279595, -0.57186919, -0.77721006, -45.69447327, 3.63931489, -46.68052292, 0.00000000, 0.00000000, 0.00000000, 36.49742126, -36.24532318, -143.42857361, 0.37559998, 0.18709999, 0.37520000, 0.82639998, 0.27000001, 0.09200001, 0.13000001, 0.00000000, 0.00000000, 0.00000000, 0.00000000
1, 0.2300, 23, -0.30387646, 0.20508881, -1.44667256, -58.25214767, 28.22388649, 70.64839935, 0.00000000, 0.00000000, 0.00000000, -7.34532118, -1.63293028, 80.13390350, -0.76419997, -0.03980000, -0.05210000, 0.64150000, 0.27300000, -0.08100000, 0.45500001, 0.00000000, 0.00000000, 0.00000000, 0.00000000
3, 0.2300, 23, 0.96243405, 0.01636206, -0.27182776, -0.00000009, 0.00000004, -0.00000006, 0.00000000, 0.00000000, 0.00000000, -3.68411994, 74.16368103, 3.99924660, 0.79609996, 0.04660000, -0.60139996, -0.04720000, 0.00000000, 0.00000000, 0.00000000, 0.00000000, 0.00000000, 0.00000000, 0.00000000
2, 0.2399, 24, -0.89847273, -0.59687275, -0.85031271, -51.30092621, 6.32586622, -47.32051086, 0.00000000, 0.00000000, 0.00000000, 36.23386383, -35.91300583, -143.85256958, 0.37160000, 0.18679999, 0.37210000, 0.82969999, 0.31000000, 0.11800001, 0.19900002, 0.00000000, 0.00000000, 0.00000000, 0.00000000
1, 0.2400, 24, -0.38066131, 0.23216264, -1.46428430, -59.17315674, 36.72096252, 78.70590973, 0.00000000, 0.00000000, 0.00000000, -7.95265675, -1.16310465, 80.86155701, -0.75970000, -0.04620000, -0.05270000, 0.64639997, 0.35700002, -0.09800000, 0.47400004, 0.00000000, 0.00000000, 0.00000000, 0.00000000
3, 0.2400, 24, 0.96243405, 0.01636206, -0.27182776, -0.00000009, 0.00000004, -0.00000006, 0.00000000, 0.00000000, 0.00000000, -3.68411994, 74.16368103, 3.99924660, 0.79609996, 0.04660000, -0.60139996, -0.04720000, 0.00000000, 0.00000000, 0.00000000, 0.00000000, 0.00000000, 0.00000000, 0.00000000
1, 0.2500, 25, -0.45821542, 0.23531827, -1.49406838, -58.20598602, 54.73647308, 84.69169617, 0.00000000, 0.00000000, 0.00000000, -8.54853249, -0.49847347, 81.62359619, -0.75489998, -0.05350000, -0.05200000, 0.65149999, 0.44500002, -0.09000000, 0.50500000, 0.00000000, 0.00000000, 0.00000000, 0.00000000
3, 0.2500, 25, 0.96242476, 0.01735642, -0.27181911, -0.00000009, 0.00000004, -0.00000006, 0.00000000, 0.00000000, 0.00000000, -3.68411994, 74.16368103, 3.99351692, 0.79609996, 0.04660000, -0.60139996, -0.04720000, 0.00000000, 0.00000000, 0.00000000, 0.00000000, 0.00000000, 0.00000000, 0.00000000
2, 0.2499, 25, -0.96546614, -0.68884659, -0.89954025, -59.09892654, 6.32273102, -43.07662201, 0.00000000, 0.00000000, 0.00000000, 35.86716843, -35.60933685, -144.23645020, 0.36769998, 0.18679999, 0.36829999, 0.83309996, 0.38200003, 0.21100001, 0.24300002, 0.00000000, 0.00000000, 0.00000000, 0.00000000
2, 0.2599, 26, -1.06638336, -0.75486022, -0.94600612, -63.94785309, 6.33200598, -43.49622726, 0.00000000, 0.00000000, 0.00000000, 35.45463943, -35.30567169, -144.62605286, 0.36370000, 0.18699999, 0.36420000, 0.83669996, 0.48700002, 0.28000000, 0.28400001, 0.00000000, 0.00000000, 0.00000000, 0.00000000
1, 0.2600, 26, -0.49559817, 0.22352609, -1.53247285, -56.99179077, 79.44223022, 90.75735474, 0.00000000, 0.00000000, 0.00000000, -9.12149143, 0.41825932, 82.39708710, -0.74979997, -0.06220000, -0.04960000, 0.65679997, 0.49700001, -0.06900001, 0.54500002, 0.00000000, 0.00000000, 0.00000000, 0.00000000
3, 0.2600, 26, 0.96242476, 0.01735642, -0.27181911, -0.00000009, 0.00000004, -0.00000006, 0.00000000, 0.00000000, 0.00000000, -3.68411994, 74.16368103, 3.99924660, 0.79609996, 0.04660000, -0.60139996, -0.04720000, -0.00200000, 0.00000000, 0.00000000, 0.00000000, 0.00000000, 0.00000000, 0.00000000
1, 0.2700, 27, -0.43545687, 0.20856498, -1.53886425, -56.27783585, 102.55455017, 95.83376312, 0.00000000, 0.00000000, 0.00000000, -9.67153072, 1.58709359, 83.17630768, -0.74439996, -0.07220000, -0.04560000, 0.66219997, 0.45500001, -0.04400000, 0.55200005, 0.00000000, 0.00000000, 0.00000000, 0.00000000
3, 0.2700, 27, 0.96242476, 0.01735642, -0.27181911, -0.00000009, 0.00000004, -0.00000006, 0.00000000, 0.00000000, 0.00000000, -3.68411994, 74.16368103, 3.99924660, 0.79609996, 0.04660000, -0.60139996, -0.04720000, -0.00100000, 0.00000000, 0.00100000, 0.00000000, 0.00000000, 0.00000000, 0.00000000
2, 0.2699, 27, -1.10909224, -0.91208696, -0.95842272, -67.30088043, 12.63397121, -42.57969666, 0.00000000, 0.00000000, 0.00000000, 34.97335434, -34.95616531, -144.96409607, 0.35979998, 0.18689999, 0.35949999, 0.84029996, 0.53400004, 0.44100001, 0.28900000, 0.00000000, 0.00000000, 0.00000000, 0.00000000
2, 0.2799, 28, -1.11779034, -0.98063111, -0.97636819, -69.85535431, 26.31421661, -40.61644363, 0.00000000, 0.00000000, 0.00000000, 34.40612793, -34.50925827, -145.18754578, 0.35650000, 0.18580000, 0.35420001, 0.84419996, 0.54900002, 0.51400000, 0.30000001, 0.00000000, 0.00000000, 0.00000000, 0.00000000
1, 0.2800, 28, -0.28020310, 0.20929775, -1.48919582, -56.42202759, 116.52514648, 99.83695221, 0.00000000, 0.00000000, 0.00000000, -10.20438099, 2.91062665, 83.96126556, -0.73859996, -0.08300000, -0.04060000, 0.66759998, 0.32300001, -0.03500000, 0.50500000, 0.00000000, 0.00000000, 0.00000000, 0.00000000
3, 0.2800, 28, 0.96242476, 0.01735642, -0.27181911, -0.00000009, 0.00000004, -0.00000006, 0.00000000, 0.00000000, 0.00000000, -3.68411994, 74.16368103, 3.99924660, 0.79609996, 0.04660000, -0.60139996, -0.04720000, 0.00000000, 0.00000000, 0.00000000, 0.00000000, 0.00000000, 0.00000000, 0.00000000
1, 0.2900, 29, -0.14487804, 0.21673572, -1.38192070, -56.89817429, 118.08348846, 104.14539337, 0.00000000, 0.00000000, 0.00000000, -10.72004318, 4.25707769, 84.76913452, -0.73249996, -0.09390000, -0.03560000, 0.67320001, 0.21100001, -0.03500000, 0.40100002, 0.00000000, 0.00000000, 0.00000000, 0.00000000
3, 0.2900, 29, 0.96242476, 0.01735642, -0.27181911, -0.00000009, 0.00000004, -0.00000006, 0.00000000, 0.00000000, 0.00000000, -3.67839026, 74.16368103, 4.00497627, 0.79609996, 0.04660000, -0.60130000, -0.04720000, 0.00000000, 0.00000000, 0.00000000, 0.00000000, 0.00000000, 0.00000000, 0.00000000
2, 0.2899, 29, -1.08860373, -0.93766218, -0.99250752, -68.85230255, 37.06808472, -44.59384155, 0.00000000, 0.00000000, 0.00000000, 33.82743835, -33.94775772, -145.38235474, 0.35330001, 0.18390000, 0.34869999, 0.84829998, 0.52700001, 0.47400004, 0.30700001, 0.00000000, 0.00000000, 0.00000000, 0.00000000
2, 0.2999, 30, -0.99576873, -0.84181249, -0.93881756, -66.24270630, 48.62822723, -56.75251770, 0.00000000, 0.00000000, 0.00000000, 33.30031967, -33.23156357, -145.62872314, 0.34950000, 0.18060000, 0.34320000, 0.85279995, 0.44300002, 0.38100001, 0.24300002, 0.00000000, 0.00000000, 0.00000000, 0.00000000
2, 0.3099, 31, -0.92244679, -0.74363762, -0.91050255, -64.84473419, 56.50558853, -69.82037354, 0.00000000, 0.00000000, 0.00000000, 32.83049393, -32.37785721, -145.96104431, 0.34489998, 0.17629999, 0.33769998, 0.85769999, 0.38200003, 0.28600001, 0.20500001, 0.00000000, 0.00000000, 0.00000000, 0.00000000
1, 0.3000, 30, -0.07318387, 0.22998239, -1.23649406, -56.07312775, 107.18019104, 108.55377197, 0.00000000, 0.00000000, 0.00000000, -11.20705795, 5.51758528, 85.63430023, -0.72589999, -0.10410000, -0.03110000, 0.67909998, 0.16100001, -0.03900000, 0.25900000, 0.00000000, 0.00000000, 0.00000000, 0.00000000
3, 0.3000, 30, 0.96242476, 0.01735642, -0.27181911, -0.00000009, 0.00000004, -0.00000006, 0.00000000, 0.00000000, 0.00000000, -3.68411994, 74.16368103, 3.99924660, 0.79609996, 0.04660000, -0.60130000, -0.04720000, 0.00000000, 0.00000000, 0.00000000, 0.00000000, 0.00000000, 0.00000000, 0.00000000
1, 0.3100, 31, -0.03450800, 0.25222635, -1.09138036, -53.96129608, 87.13649750, 112.55376434, 0.00000000, 0.00000000, 0.00000000, -11.64823627, 6.59474611, 86.57395172, -0.71889997, -0.11300000, -0.02780000, 0.68519998, 0.14300001, -0.05400000, 0.11800001, 0.00000000, 0.00000000, 0.00000000, 0.00000000
3, 0.3100, 31, 0.96242476, 0.01735642, -0.27181911, -0.00000009, 0.00000004, -0.00000006, 0.00000000, 0.00000000, 0.00000000, -3.68411994, 74.16368103, 3.99924660, 0.79609996, 0.04660000, -0.60130000, -0.04720000, -0.00100000, 0.00000000, 0.00000000, 0.00000000, 0.00000000, 0.00000000, 0.00000000
3, 0.3200, 32, 0.96242476, 0.01735642, -0.27181911, -0.00000009, 0.00000004, -0.00000006, 0.00000000, 0.00000000, 0.00000000, -3.68411994, 74.16368103, 3.99924660, 0.79609996, 0.04660000, -0.60130000, -0.04720000, 0.00000000, 0.00000000, 0.00100000, 0.00000000, 0.00000000, 0.00000000, 0.00000000
2, 0.3199, 32, -0.83428580, -0.68841749, -0.87639922, -62.61313248, 57.75059509, -76.95476532, 0.00000000, 0.00000000, 0.00000000, 32.41223145, -31.47258377, -146.35638428, 0.33989999, 0.17150000, 0.33249998, 0.86280000, 0.30800003, 0.23100001, 0.16000001, 0.00000000, 0.00000000, 0.00000000, 0.00000000
2, 0.3299, 33, -0.74321312, -0.60336632, -0.83690703, -59.01269531, 53.11006165, -78.65841675, 0.00000000, 0.00000000, 0.00000000, 32.05126953, -30.60741615, -146.80328369, 0.33460000, 0.16700000, 0.32760000, 0.86759996, 0.22900002, 0.14700000, 0.11100001, 0.00000000, 0.00000000, 0.00000000, 0.00000000
3, 0.3300, 33, 0.96242476, 0.01735642, -0.27181911, -0.00000009, 0.00000004, -0.00000006, 0.00000000, 0.00000000, 0.00000000, -3.68411994, 74.16368103, 3.99924660, 0.79609996, 0.04660000, -0.60130000, -0.04720000, -0.00200000, 0.00000000, 0.00000000, 0.00000000, 0.00000000, 0.00000000, 0.00000000
3, 0.3400, 34, 0.96242476, 0.01735642, -0.27181911, -0.00000009, 0.00000004, -0.00000006, 0.00000000, 0.00000000, 0.00000000, -3.68411994, 74.16368103, 3.99924660, 0.79609996, 0.04660000, -0.60130000, -0.04720000, 0.00000000, 0.00000000, 0.00000000, 0.00000000, 0.00000000, 0.00000000, 0.00000000
2, 0.3399, 34, -0.66464794, -0.62327904, -0.76663142, -57.55780029, 44.90302277, -81.39966583, 0.00000000, 0.00000000, 0.00000000, 31.73614311, -29.79381371, -147.32469177, 0.32889998, 0.16290000, 0.32310000, 0.87219995, 0.16300000, 0.16700001, 0.03200000, 0.00000000, 0.00000000, 0.00000000, 0.00000000
1, 0.3200, 32, -0.04415583, 0.28269228, -0.99060488, -51.23528290, 62.23524857, 116.49205780, 0.00000000, 0.00000000, 0.00000000, -12.03784752, 7.44272375, 87.59381866, -0.71149999, -0.12019999, -0.02580000, 0.69169998, 0.16800001, -0.07800000, 0.02000000, 0.00000000, 0.00000000, 0.00000000, 0.00000000
2, 0.3499, 35, -0.59509110, -0.59038860, -0.69291174, -53.30310822, 35.61830139, -76.98469543, 0.00000000, 0.00000000, 0.00000000, 31.47258377, -29.08907509, -147.86326599, 0.32319999, 0.15959999, 0.31909999, 0.87639999, 0.10500000, 0.13400000, -0.04900000, 0.00000000, 0.00000000, 0.00000000, 0.00000000
1, 0.3300, 33, -0.02840772, 0.32859349, -0.97906017, -48.68648529, 41.00762177, 118.88580322, 0.00000000, 0.00000000, 0.00000000, -12.37589169, 8.09589577, 88.68243408, -0.70389998, -0.12590000, -0.02490000, 0.69849998, 0.16500001, -0.11800001, 0.01200000, 0.00000000, 0.00000000, 0.00000000, 0.00000000
3, 0.3500, 35, 0.96242476, 0.01735642, -0.27181911, -0.00000009, 0.00000004, -0.00000006, 0.00000000, 0.00000000, 0.00000000, -3.67839026, 74.16368103, 3.99924660, 0.79609996, 0.04660000, -0.60130000, -0.04720000, -0.00100000, 0.00000000, 0.00100000, 0.00000000, 0.00000000, 0.00000000, 0.00000000
2, 0.3599, 36, -0.55684453, -0.58990747, -0.65516734, -49.11217499, 25.89266396, -62.29421234, 0.00000000, 0.00000000, 0.00000000, 31.19756317, -28.53903580, -148.32162476, 0.31849998, 0.15719999, 0.31549999, 0.87989998, 0.07600001, 0.13500001, -0.09300000, 0.00000000, 0.00000000, 0.00000000, 0.00000000
1, 0.3400, 34, -0.00007949, 0.40466726, -1.00695562, -46.99121857, 31.58220291, 118.54032898, 0.00000000, 0.00000000, 0.00000000, -12.68528938, 8.66312504, 89.78250885, -0.69619995, -0.13100000, -0.02450000, 0.70529997, 0.14700000, -0.19000001, 0.04100000, 0.00000000, 0.00000000, 0.00000000, 0.00000000
2, 0.3699, 37, -0.58626270, -0.53538865, -0.62291545, -48.18547440, 13.10720730, -48.25265884, 0.00000000, 0.00000000, 0.00000000, 30.90535355, -28.18380356, -148.71696472, 0.31450000, 0.15629999, 0.31209999, 0.88269997, 0.11200000, 0.08200000, -0.13100001, 0.00000000, 0.00000000, 0.00000000, 0.00000000
1, 0.3500, 35, 0.06001662, 0.48865834, -1.02045786, -46.48698425, 29.60072708, 116.64547729, 0.00000000, 0.00000000, 0.00000000, -12.98322773, 9.20743465, 90.86540222, -0.68849999, -0.13589999, -0.02430000, 0.71190000, 0.09500001, -0.26800001, 0.05800000, 0.00000000, 0.00000000, 0.00000000, 0.00000000
3, 0.3600, 36, 0.96242476, 0.01735642, -0.27181911, -0.00000009, 0.00000004, -0.00000006, 0.00000000, 0.00000000, 0.00000000, -3.68411994, 74.16368103, 3.99924660, 0.79609996, 0.04660000, -0.60130000, -0.04720000, 0.00000000, 0.00000000, 0.00000000, 0.00000000, 0.00000000, 0.00000000, 0.00000000
2, 0.3799, 38, -0.60758394, -0.42998916, -0.59700984, -42.73774719, -1.60177052, -35.07509232, 0.00000000, 0.00000000, 0.00000000, 30.64179230, -28.01764488, -149.07220459, 0.31110001, 0.15660000, 0.30930001, 0.88479996, 0.13700001, -0.02000000, -0.16100001, 0.00000000, 0.00000000, 0.00000000, 0.00000000
1, 0.3600, 36, 0.15007596, 0.54064292, -1.02790534, -48.38165283, 30.53151894, 114.26248169, 0.00000000, 0.00000000, 0.00000000, -13.29262543, 9.76320362, 91.92537689, -0.68079996, -0.14090000, -0.02410000, 0.71829998, 0.01500000, -0.31600001, 0.06800000, 0.00000000, 0.00000000, 0.00000000, 0.00000000
3, 0.3700, 37, 0.96242476, 0.01735642, -0.27181911, -0.00000009, 0.00000004, -0.00000006, 0.00000000, 0.00000000, 0.00000000, -3.68411994, 74.16368103, 3.99924660, 0.79609996, 0.04660000, -0.60130000, -0.04720000, 0.00000000, 0.00000000, 0.00000000, 0.00000000, 0.00000000, 0.00000000, 0.00000000
2, 0.3899, 39, -0.60227215, -0.26007661, -0.55292130, -36.69126129, -15.22450066, -26.01466942, 0.00000000, 0.00000000, 0.00000000, 30.43552780, -28.01764488, -149.41024780, 0.30820000, 0.15809999, 0.30730000, 0.88629997, 0.13300000, -0.18700001, -0.20600002, 0.00000000, 0.00000000, 0.00000000, 0.00000000
1, 0.3700, 37, 0.18877786, 0.55053729, -1.00942755, -54.35285950, 26.85155678, 114.16169739, 0.00000000, 0.00000000, 0.00000000, -13.65358829, 10.29605484, 92.98535156, -0.67299998, -0.14610000, -0.02450000, 0.72459996, -0.01300000, -0.32100001, 0.05300000, 0.00000000, 0.00000000, 0.00000000, 0.00000000
3, 0.3800, 38, 0.96243495, 0.01736444, -0.27282125, -0.00000009, 0.00000004, -0.00000006, 0.00000000, 0.00000000, 0.00000000, -3.68411994, 74.15795135, 3.99924660, 0.79619998, 0.04660000, -0.60130000, -0.04720000, 0.00000000, 0.00000000, 0.00200000, 0.00000000, 0.00000000, 0.00000000, 0.00000000
2, 0.3999, 40, -0.60152858, -0.18851165, -0.53607142, -28.70232582, -21.84003639, -17.73048973, 0.00000000, 0.00000000, 0.00000000, 30.29228783, -28.11504745, -149.71391296, 0.30579999, 0.16010000, 0.30589998, 0.88720000, 0.13100001, -0.25600001, -0.22400001, 0.00000000, 0.00000000, 0.00000000, 0.00000000
1, 0.3800, 38, 0.16046576, 0.53213024, -0.92523843, -62.62245941, 21.76514435, 116.78137970, 0.00000000, 0.00000000, 0.00000000, -14.07757759, 10.78306961, 94.08543396, -0.66479999, -0.15140000, -0.02570000, 0.73100001, 0.02300000, -0.29600000, -0.02800000, 0.00000000, 0.00000000, 0.00000000, 0.00000000
3, 0.3900, 39, 0.96243495, 0.01736444, -0.27282125, -0.00000009, 0.00000004, -0.00000006, 0.00000000, 0.00000000, 0.00000000, -3.68411994, 74.15795135, 3.99924660, 0.79619998, 0.04660000, -0.60130000, -0.04720000, -0.00100000, 0.00000000, 0.00000000, 0.00000000, 0.00000000, 0.00000000, 0.00000000
2, 0.4099, 41, -0.65466595, -0.34136355, -0.58072448, -17.14711952, -22.41658592, -2.73911643, 0.00000000, 0.00000000, 0.00000000, 30.19488716, -28.29839516, -149.86862183, 0.30469999, 0.16219999, 0.30519998, 0.88739997, 0.18200001, -0.10100000, -0.17900001, 0.00000000, 0.00000000, 0.00000000, 0.00000000
1, 0.3900, 39, 0.13883448, 0.56160408, -0.82560980, -67.51979828, 20.13418579, 118.08220673, 0.00000000, 0.00000000, 0.00000000, -14.54167366, 11.27008343, 95.20269775, -0.65639997, -0.15689999, -0.02730000, 0.73729998, 0.05200000, -0.31800002, -0.12400001, 0.00000000, 0.00000000, 0.00000000, 0.00000000
3, 0.4000, 40, 0.96243495, 0.01736444, -0.27282125, -0.00000009, 0.00000004, -0.00000006, 0.00000000, 0.00000000, 0.00000000, -3.68984914, 74.15795135, 3.98778772, 0.79619998, 0.04660000, -0.60130000, -0.04720000, 0.00000000, -0.00100000, 0.00000000, 0.00000000, 0.00000000, 0.00000000, 0.00000000
1, 0.4000, 40, 0.16387515, 0.60627836, -0.76913261, -67.49773407, 18.65636253, 117.15867615, 0.00000000, 0.00000000, 0.00000000, -15.00004005, 11.75136852, 96.31423950, -0.64789999, -0.16219999, -0.02900000, 0.74360001, 0.03600000, -0.35600001, -0.17700000, 0.00000000, 0.00000000, 0.00000000, 0.00000000
3, 0.4100, 41, 0.96243495, 0.01736444, -0.27282125, -0.00000009, 0.00000004, -0.00000006, 0.00000000, 0.00000000, 0.00000000, -3.69557881, 74.15795135, 3.98205805, 0.79619998, 0.04670000, -0.60130000, -0.04710000, 0.00000000, 0.00000000, 0.00000000, 0.00000000, 0.00000000, 0.00000000, 0.00000000
2, 0.4199, 42, -0.73865408, -0.55588710, -0.62954307, -9.87043953, -22.08657265, 12.65256786, 0.00000000, 0.00000000, 0.00000000, 30.09748077, -28.55622482, -149.87434387, 0.30500001, 0.16460000, 0.30480000, 0.88699996, 0.26200002, 0.11500000, -0.13000001, 0.00000000, 0.00000000, 0.00000000, 0.00000000
1, 0.4100, 41, 0.14306065, 0.58934706, -0.77948928, -66.40696716, 14.03791428, 116.18509674, 0.00000000, 0.00000000, 0.00000000, -15.44121742, 12.19254589, 97.42004395, -0.63940001, -0.16720000, -0.03090000, 0.74970001, 0.06500001, -0.33200002, -0.16300000, 0.00000000, 0.00000000, 0.00000000, 0.00000000
1, 0.4200, 42, 0.11781139, 0.54660571, -0.82300043, -63.19386292, 6.57382584, 114.60342407, 0.00000000, 0.00000000, 0.00000000, -15.83655930, 12.56496906, 98.53158569, -0.63089997, -0.17140000, -0.03300000, 0.75580001, 0.09700000, -0.28200001, -0.11600000, 0.00000000, 0.00000000, 0.00000000, 0.00000000
3, 0.4200, 42, 0.96242476, 0.01735642, -0.27181911, -0.00000009, 0.00000004, -0.00000006, 0.00000000, 0.00000000, 0.00000000, -3.69557881, 74.15795135, 3.98205805, 0.79619998, 0.04670000, -0.60130000, -0.04710000, 0.00000000, 0.00000000, 0.00000000, 0.00000000, 0.00000000, 0.00000000, 0.00000000
3, 0.4300, 43, 0.96242476, 0.01735642, -0.27181911, -0.00000009, 0.00000004, -0.00000006, 0.00000000, 0.00000000, 0.00000000, -3.69557881, 74.15795135, 3.98778772, 0.79619998, 0.04670000, -0.60130000, -0.04710000, 0.00000000, 0.00000000, 0.00000000, 0.00000000, 0.00000000, 0.00000000, 0.00000000
2, 0.4299, 43, -0.79459488, -0.69067037, -0.68508524, -1.20457280, -19.62710190, 18.89371109, 0.00000000, 0.00000000, 0.00000000, 30.04591751, -28.81978416, -149.79986572, 0.30589998, 0.16659999, 0.30500001, 0.88629997, 0.31400001, 0.25200000, -0.07300001, 0.00000000, 0.00000000, 0.00000000, 0.00000000
1, 0.4300, 43, 0.15002973, 0.51000059, -0.89566576, -58.76942825, 1.28888631, 112.81626892, 0.00000000, 0.00000000, 0.00000000, -16.18033218, 12.88582516, 99.64311981, -0.62259996, -0.17510000, -0.03510000, 0.76179999, 0.07000000, -0.24100001, -0.04100000, 0.00000000, 0.00000000, 0.00000000, 0.00000000
3, 0.4400, 44, 0.96242476, 0.01735642, -0.27181911, -0.00000009, 0.00000004, -0.00000006, 0.00000000, 0.00000000, 0.00000000, -3.69557881, 74.15795135, 3.98778772, 0.79619998, 0.04660000, -0.60130000, -0.04710000, 0.00000000, 0.00000000, 0.00000000, 0.00000000, 0.00000000, 0.00000000, 0.00000000
1, 0.4400, 44, 0.21020478, 0.47237691, -0.96501970, -56.16997147, -3.09785342, 112.09616089, 0.00000000, 0.00000000, 0.00000000, -16.48973083, 13.17230320, 100.75466156, -0.61420000, -0.17829999, -0.03730000, 0.76769996, 0.01500000, -0.19700001, 0.03100000, 0.00000000, 0.00000000, 0.00000000, 0.00000000
3, 0.4500, 45, 0.96242476, 0.01735642, -0.27181911, -0.00000009, 0.00000004, -0.00000006, 0.00000000, 0.00000000, 0.00000000, -3.69557881, 74.15795135, 3.98778772, 0.79619998, 0.04660000, -0.60130000, -0.04710000, -0.00100000, 0.00000000, 0.00000000, 0.00000000, 0.00000000, 0.00000000, 0.00000000
2, 0.4399, 44, -0.84251994, -0.67200100, -0.73983735, 8.05180645, -8.02170372, 14.70625591, 0.00000000, 0.00000000, 0.00000000, 30.08029366, -28.96302414, -149.69673157, 0.30699998, 0.16740000, 0.30559999, 0.88549995, 0.35900003, 0.23400001, -0.01700000, 0.00000000, 0.00000000, 0.00000000, 0.00000000
2, 0.4499, 45, -0.86488003, -0.52509636, -0.77071178, 17.79815865, 10.83448029, 12.47862053, 0.00000000, 0.00000000, 0.00000000, 30.16623688, -28.93437767, -149.51338196, 0.30849999, 0.16640000, 0.30649999, 0.88489997, 0.38100001, 0.08500000, 0.01400000, 0.00000000, 0.00000000, 0.00000000, 0.00000000
1, 0.4500, 45, 0.29849023, 0.44845954, -0.97912550, -53.07666397, -12.46020317, 111.65706635, 0.00000000, 0.00000000, 0.00000000, -16.75901985, 13.37283897, 101.88911438, -0.60579997, -0.18060000, -0.03980000, 0.77370000, -0.06800000, -0.17000000, 0.04700000, 0.00000000, 0.00000000, 0.00000000, 0.00000000
3, 0.4600, 46, 0.96242476, 0.01735642, -0.27181911, -0.00000009, 0.00000004, -0.00000006, 0.00000000, 0.00000000, 0.00000000, -3.70130849, 74.16368103, 3.98205805, 0.79609996, 0.04670000, -0.60130000, -0.04710000, 0.00000000, 0.00000000, 0.00000000, 0.00000000, 0.00000000, 0.00000000, 0.00000000
1, 0.4600, 46, 0.35102260, 0.42930701, -0.94678813, -49.74407196, -26.69945335, 113.04748535, 0.00000000, 0.00000000, 0.00000000, -16.98247337, 13.44159412, 103.08087158, -0.59729999, -0.18179999, -0.04280000, 0.77989995, -0.11900000, -0.14600001, 0.01600000, 0.00000000, 0.00000000, 0.00000000, 0.00000000
3, 0.4700, 47, 0.96242476, 0.01735642, -0.27181911, -0.00000009, 0.00000004, -0.00000006, 0.00000000, 0.00000000, 0.00000000, -3.69557881, 74.15795135, 3.98778772, 0.79619998, 0.04670000, -0.60130000, -0.04710000, 0.00000000, 0.00000000, 0.00000000, 0.00000000, 0.00000000, 0.00000000, 0.00000000
2, 0.4599, 46, -0.81163031, -0.39440504, -0.79355025, 25.97959709, 28.74346542, 12.74621964, 0.00000000, 0.00000000, 0.00000000, 30.28655815, -28.74530220, -149.22117615, 0.31059998, 0.16390000, 0.30759999, 0.88429999, 0.33000001, -0.04600000, 0.03700000, 0.00000000, 0.00000000, 0.00000000, 0.00000000
2, 0.4699, 47, -0.74655592, -0.35350785, -0.81015301, 33.11867905, 42.69217682, 19.11153412, 0.00000000, 0.00000000, 0.00000000, 30.41260910, -28.47601128, -148.78572083, 0.31369999, 0.16020000, 0.30870000, 0.88349998, 0.26800001, -0.08900000, 0.05300000, 0.00000000, 0.00000000, 0.00000000, 0.00000000
1, 0.4700, 47, 0.34622419, 0.40706074, -0.89423496, -46.60948944, -39.97937393, 115.70223999, 0.00000000, 0.00000000, 0.00000000, -17.15436172, 13.40148735, 104.34137726, -0.58849996, -0.18200000, -0.04620000, 0.78630000, -0.11400001, -0.12200001, -0.03400000, 0.00000000, 0.00000000, 0.00000000, 0.00000000
3, 0.4800, 48, 0.96242476, 0.01735642, -0.27181911, -0.00000009, 0.00000004, -0.00000006, 0.00000000, 0.00000000, 0.00000000, -3.70130849, 74.15795135, 3.98205805, 0.79619998, 0.04670000, -0.60130000, -0.04710000, 0.00000000, 0.00000000, 0.00000000, 0.00000000, 0.00000000, 0.00000000, 0.00000000
1, 0.4800, 48, 0.28987733, 0.38596773, -0.87117517, -43.01093292, -46.29227829, 119.47565460, 0.00000000, 0.00000000, 0.00000000, -17.28614235, 13.31554413, 105.65345001, -0.57940000, -0.18150000, -0.04960000, 0.79289997, -0.05900000, -0.09700000, -0.05800000, 0.00000000, 0.00000000, 0.00000000, 0.00000000
3, 0.4900, 49, 0.96242476, 0.01735642, -0.27181911, -0.00000009, 0.00000004, -0.00000006, 0.00000000, 0.00000000, 0.00000000, -3.70130849, 74.15795135, 3.97632837, 0.79619998, 0.04670000, -0.60130000, -0.04710000, 0.00000000, 0.00000000, 0.00000000, 0.00000000, 0.00000000, 0.00000000, 0.00000000
2, 0.4799, 48, -0.69751918, -0.37739971, -0.82269275, 37.22616196, 49.65384674, 24.97291946, 0.00000000, 0.00000000, 0.00000000, 30.53293037, -28.17234421, -148.25860596, 0.31750000, 0.15600000, 0.30980000, 0.88239998, 0.22400001, -0.06800000, 0.06400000, 0.00000000, 0.00000000, 0.00000000, 0.00000000
2, 0.4899, 49, -0.65446508, -0.42419609, -0.83557528, 40.05112457, 49.16063309, 27.36742210, 0.00000000, 0.00000000, 0.00000000, 30.67043877, -27.89159393, -147.70855713, 0.32150000, 0.15179999, 0.31119999, 0.88129997, 0.18500000, -0.02500000, 0.07600001, 0.00000000, 0.00000000, 0.00000000, 0.00000000
1, 0.4900, 49, 0.21664967, 0.34992099, -0.85442311, -38.53807068, -45.11774445, 123.91555023, 0.00000000, 0.00000000, 0.00000000, -17.36062813, 13.25251770, 107.01136017, -0.56989998, -0.18079999, -0.05260000, 0.79969996, 0.01200000, -0.05900000, -0.07400000, 0.00000000, 0.00000000, 0.00000000, 0.00000000
3, 0.5000, 50, 0.96142322, 0.01734748, -0.27182791, -0.00000009, 0.00000004, -0.00000006, 0.00000000, 0.00000000, 0.00000000, -3.69557881, 74.15795135, 3.98778772, 0.79619998, 0.04670000, -0.60130000, -0.04710000, 0.00000000, 0.00000000, 0.00000000, 0.00000000, 0.00000000, 0.00000000, 0.00000000
1, 0.5000, 50, 0.19281548, 0.32598636, -0.86288387, -33.47458649, -43.82025909, 127.67491150, 0.00000000, 0.00000000, 0.00000000, -17.37781525, 13.21241093, 108.39791870, -0.56029999, -0.17999999, -0.05510000, 0.80649996, 0.03500000, -0.03500000, -0.06500001, 0.00000000, 0.00000000, 0.00000000, 0.00000000
3, 0.5100, 51, 0.96142322, 0.01734748, -0.27182791, -0.00000009, 0.00000004, -0.00000006, 0.00000000, 0.00000000, 0.00000000, -3.70130849, 74.15795135, 3.98205805, 0.79619998, 0.04670000, -0.60130000, -0.04710000, 0.00000000, 0.00000000, 0.00000000, 0.00000000, 0.00000000, 0.00000000, 0.00000000
2, 0.4999, 50, -0.62946045, -0.45607892, -0.84155232, 39.82513809, 46.72743225, 30.27371407, 0.00000000, 0.00000000, 0.00000000, 30.80795097, -27.64522171, -147.14134216, 0.32560000, 0.14790000, 0.31250000, 0.87989998, 0.16500001, 0.00400000, 0.08100000, 0.00000000, 0.00000000, 0.00000000, 0.00000000
1, 0.5100, 51, 0.20564610, 0.30593672, -0.84995431, -26.71842194, -51.54795074, 131.08985901, 0.00000000, 0.00000000, 0.00000000, -17.31479073, 13.11500835, 109.84177399, -0.55030000, -0.17829999, -0.05750000, 0.81360000, 0.02100000, -0.01600000, -0.07800000, 0.00000000, 0.00000000, 0.00000000, 0.00000000
3, 0.5200, 52, 0.96142322, 0.01734748, -0.27182791, -0.00000009, 0.00000004, -0.00000006, 0.00000000, 0.00000000, 0.00000000, -3.70130849, 74.15795135, 3.98205805, 0.79619998, 0.04670000, -0.60130000, -0.04710000, 0.00000000, 0.00000000, 0.00000000, 0.00000000, 0.00000000, 0.00000000, 0.00000000
2, 0.5099, 51, -0.63741314, -0.44408962, -0.84255046, 42.55798721, 47.16617203, 31.23836899, 0.00000000, 0.00000000, 0.00000000, 30.96837807, -27.39885139, -146.56838989, 0.32979998, 0.14399999, 0.31399998, 0.87849998, 0.17600001, -0.01100000, 0.08100000, 0.00000000, 0.00000000, 0.00000000, 0.00000000
2, 0.5199, 52, -0.64116848, -0.45587954, -0.85679030, 47.65355682, 52.97111511, 30.84608269, 0.00000000, 0.00000000, 0.00000000, 31.16891289, -27.10664177, -145.96104431, 0.33419999, 0.13939999, 0.31579998, 0.87689996, 0.18400002, -0.00200000, 0.09500001, 0.00000000, 0.00000000, 0.00000000, 0.00000000
1, 0.5200, 52, 0.22825837, 0.28481591, -0.82297003, -19.42251587, -68.81392670, 133.56663513, 0.00000000, 0.00000000, 0.00000000, -17.16582108, 12.85144806, 111.36011505, -0.54009998, -0.17500000, -0.06010000, 0.82089996, -0.00400000, 0.00200000, -0.10700001, 0.00000000, 0.00000000, 0.00000000, 0.00000000
1, 0.5300, 53, 0.24438184, 0.25986072, -0.82797724, -11.04190826, -88.06047058, 134.27233887, 0.00000000, 0.00000000, 0.00000000, -16.93090820, 12.40454006, 112.94148254, -0.52980000, -0.16990000, -0.06290000, 0.82839996, -0.02600000, 0.02500000, -0.10500000, 0.00000000, 0.00000000, 0.00000000, 0.00000000
3, 0.5300, 53, 0.96242476, 0.01735642, -0.27181911, -0.00000009, 0.00000004, -0.00000006, 0.00000000, 0.00000000, 0.00000000, -3.70130849, 74.15795135, 3.98205805, 0.79619998, 0.04670000, -0.60130000, -0.04710000, -0.00100000, 0.00000000, 0.00000000, 0.00000000, 0.00000000, 0.00000000, 0.00000000
3, 0.5400, 54, 0.96242476, 0.01735642, -0.27181911, -0.00000009, 0.00000004, -0.00000006, 0.00000000, 0.00000000, 0.00000000, -3.70130849, 74.15795135, 3.98205805, 0.79619998, 0.04670000, -0.60130000, -0.04710000, -0.00100000, 0.00000000, 0.00000000, 0.00000000, 0.00000000, 0.00000000, 0.00000000
2, 0.5299, 53, -0.61516881, -0.49573696, -0.86283845, 53.58166504, 64.70441437, 29.59444809, 0.00000000, 0.00000000, 0.00000000, 31.40382767, -26.70557022, -145.30215454, 0.33890000, 0.13370000, 0.31759998, 0.87529999, 0.16300000, 0.03300000, 0.10100000, 0.00000000, 0.00000000, 0.00000000, 0.00000000
1, 0.5400, 54, 0.25914738, 0.22279567, -0.80919486, -2.30131531, -106.55151367, 133.83592224, 0.00000000, 0.00000000, 0.00000000, -16.61578178, 11.76855659, 114.56294250, -0.51949996, -0.16300000, -0.06600000, 0.83609998, -0.05100000, 0.05800000, -0.12600000, 0.00000000, 0.00000000, 0.00000000, 0.00000000
3, 0.5500, 55, 0.96242476, 0.01735642, -0.27181911, -0.00000009, 0.00000004, -0.00000006, 0.00000000, 0.00000000, 0.00000000, -3.70130849, 74.15795135, 3.98205805, 0.79619998, 0.04660000, -0.60130000, -0.04710000, 0.00000000, 0.00000000, 0.00000000, 0.00000000, 0.00000000, 0.00000000, 0.00000000
2, 0.5399, 54, -0.56653148, -0.52488220, -0.85135108, 56.92928314, 75.69435120, 28.69901085, 0.00000000, 0.00000000, 0.00000000, 31.65592957, -26.21282768, -144.58595276, 0.34390000, 0.12700000, 0.31939998, 0.87379998, 0.12100001, 0.05600000, 0.08800001, 0.00000000, 0.00000000, 0.00000000, 0.00000000
2, 0.5499, 55, -0.51344818, -0.48764715, -0.80594802, 62.01857376, 87.00657654, 25.24873161, 0.00000000, 0.00000000, 0.00000000, 31.94813538, -25.60549164, -143.83535767, 0.34889999, 0.11920000, 0.32119998, 0.87219995, 0.07700001, 0.01300000, 0.04100000, 0.00000000, 0.00000000, 0.00000000, 0.00000000
1, 0.5500, 55, 0.25279731, 0.18769704, -0.78367156, 6.27543974, -124.28885651, 132.24942017, 0.00000000, 0.00000000, 0.00000000, -16.22616959, 10.95495605, 116.21879578, -0.50909996, -0.15439999, -0.06930000, 0.84380001, -0.05700000, 0.08800001, -0.15600000, 0.00000000, 0.00000000, 0.00000000, 0.00000000
3, 0.5600, 56, 0.96242476, 0.01735642, -0.27181911, -0.00000009, 0.00000004, -0.00000006, 0.00000000, 0.00000000, 0.00000000, -3.69557881, 74.15795135, 3.98205805, 0.79619998, 0.04660000, -0.60130000, -0.04710000, 0.00000000, 0.00000000, 0.00000000, 0.00000000, 0.00000000, 0.00000000, 0.00000000
2, 0.5599, 56, -0.45919049, -0.47719580, -0.77185923, 68.00717163, 96.74392700, 20.59395981, 0.00000000, 0.00000000, 0.00000000, 32.30337143, -24.89502335, -143.07333374, 0.35389999, 0.11030000, 0.32319999, 0.87059999, 0.03400000, -0.00400000, 0.00600000, 0.00000000, 0.00000000, 0.00000000, 0.00000000
1, 0.5600, 56, 0.19855371, 0.15264127, -0.76568967, 14.37121868, -138.07537842, 129.91935730, 0.00000000, 0.00000000, 0.00000000, -15.77926254, 9.98092842, 117.87464142, -0.49879998, -0.14440000, -0.07260000, 0.85139996, -0.01900000, 0.11700001, -0.17900001, 0.00000000, 0.00000000, 0.00000000, 0.00000000
3, 0.5700, 57, 0.96142322, 0.01734748, -0.27182791, -0.00000009, 0.00000004, -0.00000006, 0.00000000, 0.00000000, 0.00000000, -3.68984914, 74.15795135, 3.98778772, 0.79619998, 0.04660000, -0.60130000, -0.04710000, 0.00000000, 0.00000000, 0.00000000, 0.00000000, 0.00000000, 0.00000000, 0.00000000
2, 0.5699, 57, -0.39894608, -0.51358384, -0.73918939, 73.65131378, 105.46304321, 15.58126163, 0.00000000, 0.00000000, 0.00000000, 32.72163010, -24.08715439, -142.30557251, 0.35869998, 0.10050000, 0.32539999, 0.86899996, -0.01300000, 0.02300000, -0.02700000, 0.00000000, 0.00000000, 0.00000000, 0.00000000
1, 0.5700, 57, 0.07782701, 0.11676307, -0.78138036, 22.71372604, -143.79335022, 127.04072571, 0.00000000, 0.00000000, 0.00000000, -15.28651810, 8.93814468, 119.50757599, -0.48870000, -0.13349999, -0.07560000, 0.85879999, 0.08400001, 0.14600001, -0.16900001, 0.00000000, 0.00000000, 0.00000000, 0.00000000
3, 0.5800, 58, 0.96242476, 0.01735642, -0.27181911, -0.00000009, 0.00000004, -0.00000006, 0.00000000, 0.00000000, 0.00000000, -3.68984914, 74.15795135, 3.98778772, 0.79619998, 0.04660000, -0.60130000, -0.04710000, -0.00100000, 0.00000000, 0.00000000, 0.00000000, 0.00000000, 0.00000000, 0.00000000
1, 0.5800, 58, -0.01986628, 0.08089124, -0.79879057, 30.83253860, -139.60972595, 123.09409332, 0.00000000, 0.00000000, 0.00000000, -14.74793911, 7.90682030, 121.07175446, -0.47880000, -0.12249999, -0.07780000, 0.86570001, 0.16400000, 0.17300001, -0.15600000, 0.00000000, 0.00000000, 0.00000000, 0.00000000
3, 0.5900, 59, 0.96242476, 0.01735642, -0.27181911, -0.00000009, 0.00000004, -0.00000006, 0.00000000, 0.00000000, 0.00000000, -3.68984914, 74.15795135, 3.98778772, 0.79619998, 0.04660000, -0.60130000, -0.04710000, -0.00100000, 0.00000000, 0.00100000, 0.00000000, 0.00000000, 0.00000000, 0.00000000
1, 0.5900, 59, -0.04150733, 0.06401546, -0.82011575, 37.95328522, -133.36781311, 118.79318237, 0.00000000, 0.00000000, 0.00000000, -14.17498112, 6.91560268, 122.57289886, -0.46930000, -0.11160000, -0.07920000, 0.87229997, 0.16800001, 0.18200001, -0.14000000, 0.00000000, 0.00000000, 0.00000000, 0.00000000
3, 0.6000, 60, 0.96242476, 0.01735642, -0.27181911, -0.00000009, 0.00000004, -0.00000006, 0.00000000, 0.00000000, 0.00000000, -3.68411994, 74.15795135, 3.99351692, 0.79619998, 0.04660000, -0.60130000, -0.04720000, 0.00000000, 0.00000000, 0.00000000, 0.00000000, 0.00000000, 0.00000000, 0.00000000
2, 0.5799, 58, -0.34056097, -0.54589045, -0.71453452, 79.53829956, 114.42347717, 13.38829613, 0.00000000, 0.00000000, 0.00000000, 33.19718552, -23.19906807, -141.50343323, 0.36370000, 0.08970000, 0.32769999, 0.86729997, -0.05800000, 0.04600000, -0.05300000, 0.00000000, 0.00000000, 0.00000000, 0.00000000
2, 0.5899, 59, -0.29193956, -0.57106113, -0.70200050, 84.95662689, 122.64404297, 11.23968029, 0.00000000, 0.00000000, 0.00000000, 33.72430801, -22.24222755, -140.66690063, 0.36859998, 0.07800000, 0.33010000, 0.86539996, -0.09200001, 0.06100000, -0.06700000, 0.00000000, 0.00000000, 0.00000000, 0.00000000
1, 0.6000, 60, -0.02207132, 0.05015558, -0.84590936, 44.36868668, -134.09976196, 114.00223541, 0.00000000, 0.00000000, 0.00000000, -13.56764507, 5.88427830, 124.00529480, -0.46010000, -0.10040000, -0.08020000, 0.87839997, 0.13100001, 0.18600000, -0.11800001, 0.00000000, 0.00000000, 0.00000000, 0.00000000
3, 0.6100, 61, 0.96242476, 0.01735642, -0.27181911, -0.00000009, 0.00000004, -0.00000006, 0.00000000, 0.00000000, 0.00000000, -3.69557881, 74.15795135, 3.98778772, 0.79619998, 0.04660000, -0.60130000, -0.04710000, 0.00000000, 0.00000000, 0.00000000, 0.00000000, 0.00000000, 0.00000000, 0.00000000
1, 0.6100, 61, -0.01592229, 0.02820938, -0.85300124, 49.84139633, -144.73896790, 110.43402863, 0.00000000, 0.00000000, 0.00000000, -12.93739128, 4.72690296, 125.42050171, -0.45099998, -0.08800000, -0.08120000, 0.88439995, 0.10600001, 0.19900002, -0.11500000, 0.00000000, 0.00000000, 0.00000000, 0.00000000
3, 0.6200, 62, 0.96142322, 0.01734748, -0.27182791, -0.00000009, 0.00000004, -0.00000006, 0.00000000, 0.00000000, 0.00000000, -3.69557881, 74.15795135, 3.98205805, 0.79619998, 0.04660000, -0.60130000, -0.04710000, 0.00100000, 0.00000000, 0.00000000, 0.00000000, 0.00000000, 0.00000000, 0.00000000
2, 0.5999, 60, -0.25723326, -0.58620906, -0.69158322, 89.63385773, 132.98709106, 7.94768476, 0.00000000, 0.00000000, 0.00000000, 34.29726410, -21.18225670, -139.79602051, 0.37369999, 0.06530000, 0.33249998, 0.86339998, -0.11000001, 0.06500001, -0.07700001, 0.00000000, 0.00000000, 0.00000000, 0.00000000
2, 0.6099, 61, -0.22548087, -0.58936906, -0.68308944, 93.73480225, 141.97264099, 4.17664433, 0.00000000, 0.00000000, 0.00000000, 34.92178726, -20.03634071, -138.89646912, 0.37860000, 0.05160000, 0.33489999, 0.86119998, -0.12300000, 0.05600000, -0.08600000, 0.00000000, 0.00000000, 0.00000000, 0.00000000
2, 0.6199, 62, -0.19581987, -0.58661264, -0.66854155, 98.25006866, 151.41720581, 0.12848160, 0.00000000, 0.00000000, 0.00000000, 35.59214783, -18.79875183, -137.96827698, 0.38339999, 0.03700000, 0.33719999, 0.85889995, -0.13400000, 0.04100000, -0.10100000, 0.00000000, 0.00000000, 0.00000000, 0.00000000
1, 0.6200, 62, -0.02993614, 0.00821432, -0.85035223, 55.34336090, -159.66539001, 106.73934174, 0.00000000, 0.00000000, 0.00000000, -12.28421879, 3.40337038, 126.81278992, -0.44200000, -0.07430000, -0.08240000, 0.89010000, 0.09800000, 0.20800000, -0.12200001, 0.00000000, 0.00000000, 0.00000000, 0.00000000
3, 0.6300, 63, 0.96142322, 0.01734748, -0.27182791, -0.00000009, 0.00000004, -0.00000006, 0.00000000, 0.00000000, 0.00000000, -3.69557881, 74.15795135, 3.98205805, 0.79619998, 0.04660000, -0.60130000, -0.04710000, -0.00100000, 0.00000000, 0.00000000, 0.00000000, 0.00000000, 0.00000000, 0.00000000
1, 0.6300, 63, -0.06269027, -0.00769578, -0.86482668, 59.76655960, -171.22854614, 103.72749329, 0.00000000, 0.00000000, 0.00000000, -11.61958790, 1.94232762, 128.18788147, -0.43300000, -0.05940000, -0.08370000, 0.89550000, 0.10700001, 0.21400002, -0.11200000, 0.00000000, 0.00000000, 0.00000000, 0.00000000
3, 0.6400, 64, 0.96142322, 0.01734748, -0.27182791, -0.00000009, 0.00000004, -0.00000006, 0.00000000, 0.00000000, 0.00000000, -3.70703816, 74.15795135, 3.97632837, 0.79619998, 0.04670000, -0.60130000, -0.04710000, 0.00000000, -0.00100000, 0.00000000, 0.00000000, 0.00000000, 0.00000000, 0.00000000
2, 0.6299, 63, -0.14216274, -0.59083539, -0.65871215, 101.45153809, 159.98611450, -2.39630651, 0.00000000, 0.00000000, 0.00000000, 36.30834961, -17.49240685, -136.99998474, 0.38819999, 0.02150000, 0.33939999, 0.85639995, -0.16600001, 0.03200000, -0.11000001, 0.00000000, 0.00000000, 0.00000000, 0.00000000
2, 0.6399, 64, -0.09157436, -0.57517695, -0.64369583, 101.72676086, 162.80953979, -4.78189373, 0.00000000, 0.00000000, 0.00000000, 37.04173279, -16.15741539, -136.02595520, 0.39280000, 0.00580000, 0.34149998, 0.85369998, -0.19400001, 0.00200000, -0.12300000, 0.00000000, 0.00000000, 0.00000000, 0.00000000
2, 0.6499, 65, -0.06882978, -0.52354068, -0.63173634, 101.86806488, 162.65977478, -6.15920401, 0.00000000, 0.00000000, 0.00000000, 37.80376816, -14.82815266, -135.04618835, 0.39719999, -0.00990000, 0.34349999, 0.85089999, -0.19500001, -0.06300000, -0.13200000, 0.00000000, 0.00000000, 0.00000000, 0.00000000
3, 0.6500, 65, 0.96142322, 0.01734748, -0.27182791, -0.00000009, 0.00000004, -0.00000006, 0.00000000, 0.00000000, 0.00000000, -3.70130849, 74.15795135, 3.97632837, 0.79619998, 0.04670000, -0.60130000, -0.04710000, 0.00000000, 0.00000000, 0.00000000, 0.00000000, 0.00000000, 0.00000000, 0.00000000
1, 0.6400, 64, -0.06249574, -0.01063277, -0.87680537, 63.03736115, -173.40843201, 99.68962097, 0.00000000, 0.00000000, 0.00000000, -10.96641541, 0.44117767, 129.50569153, -0.42420000, -0.04420000, -0.08470000, 0.90039998, 0.08000001, 0.20500001, -0.10300001, 0.00000000, 0.00000000, 0.00000000, 0.00000000
3, 0.6600, 66, 0.96242476, 0.01735642, -0.27181911, -0.00000009, 0.00000004, -0.00000006, 0.00000000, 0.00000000, 0.00000000, -3.70130849, 74.15795135, 3.97632837, 0.79619998, 0.04670000, -0.60130000, -0.04710000, 0.00000000, 0.00000000, 0.00000000, 0.00000000, 0.00000000, 0.00000000, 0.00000000
1, 0.6500, 65, -0.08416622, -0.01052366, -0.89798331, 64.43305206, -166.68415833, 96.62538147, 0.00000000, 0.00000000, 0.00000000, -10.32470322, -1.01413560, 130.76046753, -0.41549999, -0.02940000, -0.08549999, 0.90499997, 0.07600001, 0.19400001, -0.08400001, 0.00000000, 0.00000000, 0.00000000, 0.00000000
1, 0.6600, 66, -0.11596723, -0.00845495, -0.91129404, 64.67348480, -154.36961365, 94.53646851, 0.00000000, 0.00000000, 0.00000000, -9.71163750, -2.37204623, 131.96368408, -0.40699998, -0.01560000, -0.08570000, 0.90919995, 0.08300000, 0.18100001, -0.07200000, 0.00000000, 0.00000000, 0.00000000, 0.00000000
3, 0.6700, 67, 0.96142322, 0.01734748, -0.27182791, -0.00000009, 0.00000004, -0.00000006, 0.00000000, 0.00000000, 0.00000000, -3.70703816, 74.15795135, 3.97632837, 0.79619998, 0.04670000, -0.60130000, -0.04710000, 0.00000000, 0.00000000, 0.00000000, 0.00000000, 0.00000000, 0.00000000, 0.00000000
1, 0.6700, 67, -0.12510958, 0.00949529, -0.90427238, 63.73135757, -139.31507874, 92.49475098, 0.00000000, 0.00000000, 0.00000000, -9.13868046, -3.59244633, 133.10386658, -0.39870000, -0.00290000, -0.08549999, 0.91299999, 0.07000000, 0.15300001, -0.08000001, 0.00000000, 0.00000000, 0.00000000, 0.00000000
3, 0.6800, 68, 0.96242476, 0.01735642, -0.27181911, -0.00000009, 0.00000004, -0.00000006, 0.00000000, 0.00000000, 0.00000000, -3.70130849, 74.15795135, 3.97632837, 0.79619998, 0.04670000, -0.60130000, -0.04710000, -0.00100000, 0.00000000, 0.00000000, 0.00000000, 0.00000000, 0.00000000, 0.00000000
2, 0.6599, 66, -0.06839320, -0.49702153, -0.59731317, 103.08825684, 162.87927246, -5.67913961, 0.00000000, 0.00000000, 0.00000000, 38.58872223, -13.51034927, -134.05497742, 0.40149999, -0.02580000, 0.34540001, 0.84770000, -0.17300001, -0.10300001, -0.16400000, 0.00000000, 0.00000000, 0.00000000, 0.00000000
2, 0.6699, 67, -0.06975898, -0.51919043, -0.57549262, 102.06832886, 161.15110779, -4.21535015, 0.00000000, 0.00000000, 0.00000000, 39.38513184, -12.23265266, -133.05230713, 0.40579998, -0.04140000, 0.34729999, 0.84429997, -0.14900000, -0.09500001, -0.18100001, 0.00000000, 0.00000000, 0.00000000, 0.00000000
1, 0.6800, 68, -0.08961090, 0.03631971, -0.87472612, 61.81562042, -125.74617004, 89.97425079, 0.00000000, 0.00000000, 0.00000000, -8.59436893, -4.69825506, 134.19248962, -0.39049998, 0.00850000, -0.08490000, 0.91659999, 0.01500000, 0.11600000, -0.11000001, 0.00000000, 0.00000000, 0.00000000, 0.00000000
3, 0.6900, 69, 0.96242476, 0.01735642, -0.27181911, -0.00000009, 0.00000004, -0.00000006, 0.00000000, 0.00000000, 0.00000000, -3.70703816, 74.15795135, 3.97059870, 0.79619998, 0.04670000, -0.60130000, -0.04710000, 0.00000000, 0.00000000, 0.00000000, 0.00000000, 0.00000000, 0.00000000, 0.00000000
1, 0.6900, 69, -0.03921259, 0.06710800, -0.83899117, 59.47849274, -119.26998901, 87.54254913, 0.00000000, 0.00000000, 0.00000000, -8.09589577, -5.75249815, 135.23526001, -0.38259998, 0.01940000, -0.08419999, 0.91979998, -0.05400000, 0.07500000, -0.14500001, 0.00000000, 0.00000000, 0.00000000, 0.00000000
3, 0.7000, 70, 0.96242476, 0.01735642, -0.27181911, -0.00000009, 0.00000004, -0.00000006, 0.00000000, 0.00000000, 0.00000000, -3.70703816, 74.15795135, 3.97632837, 0.79619998, 0.04670000, -0.60130000, -0.04710000, -0.00100000, 0.00000000, 0.00000000, 0.00000000, 0.00000000, 0.00000000, 0.00000000
1, 0.7000, 70, -0.01863993, 0.08696117, -0.81366760, 57.58615875, -121.72642517, 86.58726501, 0.00000000, 0.00000000, 0.00000000, -7.63179970, -6.84111834, 136.26660156, -0.37459999, 0.03050000, -0.08380000, 0.92280000, -0.09200001, 0.04700000, -0.17000000, 0.00000000, 0.00000000, 0.00000000, 0.00000000
2, 0.6799, 68, -0.05192285, -0.51930326, -0.56919152, 100.34175110, 156.29013062, -2.44257069, 0.00000000, 0.00000000, 0.00000000, 40.18727112, -11.01225185, -132.04962158, 0.40989998, -0.05650000, 0.34909999, 0.84069997, -0.14600001, -0.10800000, -0.18100001, 0.00000000, 0.00000000, 0.00000000, 0.00000000
1, 0.7100, 71, -0.06492750, 0.09587507, -0.79720181, 56.27943802, -128.37133789, 87.35368347, 0.00000000, 0.00000000, 0.00000000, -7.20208168, -7.99849319, 137.30937195, -0.36640000, 0.04200000, -0.08370000, 0.92569995, -0.06600000, 0.03000000, -0.18500000, 0.00000000, 0.00000000, 0.00000000, 0.00000000
3, 0.7100, 71, 0.96242476, 0.01735642, -0.27181911, -0.00000009, 0.00000004, -0.00000006, 0.00000000, 0.00000000, 0.00000000, -3.71276784, 74.15795135, 3.97059870, 0.79619998, 0.04670000, -0.60130000, -0.04710000, 0.00000000, 0.00000000, 0.00000000, 0.00000000, 0.00000000, 0.00000000, 0.00000000
2, 0.6899, 69, -0.05748110, -0.49078733, -0.53383678, 97.91695404, 149.83984375, -0.86539721, 0.00000000, 0.00000000, 0.00000000, 40.98941422, -9.87206554, -131.06413269, 0.41389999, -0.07110000, 0.35079998, 0.83690000, -0.12100001, -0.15000001, -0.21100001, 0.00000000, 0.00000000, 0.00000000, 0.00000000
3, 0.7200, 72, 0.96242476, 0.01735642, -0.27181911, -0.00000009, 0.00000004, -0.00000006, 0.00000000, 0.00000000, 0.00000000, -3.71276784, 74.15222168, 3.97059870, 0.79619998, 0.04670000, -0.60130000, -0.04710000, 0.00000000, 0.00000000, 0.00000000, 0.00000000, 0.00000000, 0.00000000, 0.00000000
1, 0.7200, 72, -0.10234383, 0.11574255, -0.77356172, 56.42153931, -133.92431641, 88.08765411, 0.00000000, 0.00000000, 0.00000000, -6.79528141, -9.22462368, 138.35789490, -0.35810000, 0.05400000, -0.08370000, 0.92829996, -0.04900000, 0.00300000, -0.20600002, 0.00000000, 0.00000000, 0.00000000, 0.00000000
2, 0.6999, 70, -0.09806398, -0.46228552, -0.48999763, 96.89439392, 144.80940247, 0.80209267, 0.00000000, 0.00000000, 0.00000000, 41.79728699, -8.78917503, -130.08438110, 0.41769999, -0.08510000, 0.35270000, 0.83289999, -0.06100000, -0.19100001, -0.24800001, 0.00000000, 0.00000000, 0.00000000, 0.00000000
1, 0.7300, 73, -0.10640515, 0.13271803, -0.77146977, 58.04426575, -137.08274841, 90.11537933, 0.00000000, 0.00000000, 0.00000000, -6.39994049, -10.47940159, 139.42359924, -0.34939998, 0.06620000, -0.08370000, 0.93079996, -0.06600000, -0.02100000, -0.20600002, 0.00000000, 0.00000000, 0.00000000, 0.00000000
3, 0.7300, 73, 0.96242476, 0.01735642, -0.27181911, -0.00000009, 0.00000004, -0.00000006, 0.00000000, 0.00000000, 0.00000000, -3.71276784, 74.15222168, 3.97059870, 0.79619998, 0.04670000, -0.60130000, -0.04710000, -0.00100000, 0.00000000, 0.00000000, 0.00000000, 0.00000000, 0.00000000, 0.00000000
3, 0.7400, 74, 0.96242476, 0.01735642, -0.27181911, -0.00000009, 0.00000004, -0.00000006, 0.00000000, 0.00000000, 0.00000000, -3.70703816, 74.15222168, 3.97059870, 0.79619998, 0.04670000, -0.60130000, -0.04710000, 0.00000000, 0.00000000, 0.00000000, 0.00000000, 0.00000000, 0.00000000, 0.00000000
1, 0.7400, 74, -0.13897689, 0.12086470, -0.79786229, 59.96257782, -135.56788635, 93.88516998, 0.00000000, 0.00000000, 0.00000000, -6.01032925, -11.72844982, 140.52940369, -0.34039998, 0.07840000, -0.08350000, 0.93320000, -0.05500000, -0.01600000, -0.17700000, 0.00000000, 0.00000000, 0.00000000, 0.00000000
2, 0.7099, 71, -0.10110255, -0.45932239, -0.48700172, 96.62104797, 139.99623108, 3.11462545, 0.00000000, 0.00000000, 0.00000000, 42.62807083, -7.77504015, -129.11035156, 0.42150000, -0.09869999, 0.35459998, 0.82870001, -0.04000000, -0.20700002, -0.24400002, 0.00000000, 0.00000000, 0.00000000, 0.00000000
2, 0.7199, 72, -0.10228815, -0.49531817, -0.47637019, 92.70227051, 134.25944519, 6.45460510, 0.00000000, 0.00000000, 0.00000000, 43.43021393, -6.83538866, -128.14205933, 0.42530000, -0.11160000, 0.35639998, 0.82429999, -0.02200000, -0.18200001, -0.24700001, 0.00000000, 0.00000000, 0.00000000, 0.00000000
2, 0.7299, 73, -0.12794860, -0.50803822, -0.49196738, 88.12567902, 129.07969666, 10.59279919, 0.00000000, 0.00000000, 0.00000000, 44.20370865, -5.97595167, -127.16229248, 0.42919999, -0.12379999, 0.35799998, 0.81989998, 0.01800000, -0.18100001, -0.22300000, 0.00000000, 0.00000000, 0.00000000, 0.00000000
1, 0.7500, 75, -0.18742910, 0.10305448, -0.83146888, 61.02412415, -129.26060486, 98.46009827, 0.00000000, 0.00000000, 0.00000000, -5.64363623, -12.91447353, 141.66384888, -0.33100000, 0.09000000, -0.08310000, 0.93559998, -0.02800000, -0.00500000, -0.13900001, 0.00000000, 0.00000000, 0.00000000, 0.00000000
3, 0.7500, 75, 0.96242476, 0.01735642, -0.27181911, -0.00000009, 0.00000004, -0.00000006, 0.00000000, 0.00000000, 0.00000000, -3.70130849, 74.15222168, 3.97632837, 0.79619998, 0.04670000, -0.60130000, -0.04710000, 0.00000000, 0.00000000, 0.00000000, 0.00000000, 0.00000000, 0.00000000, 0.00000000
3, 0.7600, 76, 0.96242476, 0.01735642, -0.27181911, -0.00000009, 0.00000004, -0.00000006, 0.00000000, 0.00000000, 0.00000000, -3.70130849, 74.15222168, 3.97632837, 0.79619998, 0.04670000, -0.60130000, -0.04710000, -0.00100000, 0.00000000, 0.00000000, 0.00000000, 0.00000000, 0.00000000, 0.00000000
3, 0.7700, 77, 0.96242476, 0.01735642, -0.27181911, -0.00000009, 0.00000004, -0.00000006, 0.00000000, 0.00000000, 0.00000000, -3.70703816, 74.15795135, 3.97059870, 0.79619998, 0.04670000, -0.60130000, -0.04710000, 0.00000000, 0.00000000, 0.00000000, 0.00000000, 0.00000000, 0.00000000, 0.00000000
2, 0.7399, 74, -0.15842491, -0.51963645, -0.51766557, 83.36693573, 125.25989532, 15.08345222, 0.00000000, 0.00000000, 0.00000000, 44.94282532, -5.19099951, -126.17108154, 0.43320000, -0.13540000, 0.35940000, 0.81529999, 0.06200000, -0.17900001, -0.18900001, 0.00000000, 0.00000000, 0.00000000, 0.00000000
2, 0.7499, 75, -0.17895083, -0.51632339, -0.54204190, 76.16476440, 123.10987854, 22.07632065, 0.00000000, 0.00000000, 0.00000000, 45.61318207, -4.48053122, -125.13974762, 0.43770000, -0.14639999, 0.36039999, 0.81049997, 0.09600000, -0.19100001, -0.15700001, 0.00000000, 0.00000000, 0.00000000, 0.00000000
1, 0.7600, 76, -0.21420851, 0.11112712, -0.84666044, 61.19047546, -118.43433380, 102.51670837, 0.00000000, 0.00000000, 0.00000000, -5.30559063, -13.99736309, 142.83268738, -0.32130000, 0.10070000, -0.08230000, 0.93789995, -0.02000000, -0.01900000, -0.12000000, 0.00000000, 0.00000000, 0.00000000, 0.00000000
3, 0.7800, 78, 0.96242476, 0.01735642, -0.27181911, -0.00000009, 0.00000004, -0.00000006, 0.00000000, 0.00000000, 0.00000000, -3.71276784, 74.15795135, 3.97059870, 0.79619998, 0.04670000, -0.60130000, -0.04710000, 0.00000000, 0.00000000, 0.00000000, 0.00000000, 0.00000000, 0.00000000, 0.00000000
1, 0.7700, 77, -0.24508467, 0.12016934, -0.85591441, 60.40080261, -102.80393982, 106.11234283, 0.00000000, 0.00000000, 0.00000000, -4.99619389, -14.92555523, 144.01870728, -0.31129998, 0.11000000, -0.08120000, 0.94040000, -0.00600000, -0.03400000, -0.10700001, 0.00000000, 0.00000000, 0.00000000, 0.00000000
3, 0.7900, 79, 0.96242476, 0.01735642, -0.27181911, -0.00000009, 0.00000004, -0.00000006, 0.00000000, 0.00000000, 0.00000000, -3.70703816, 74.15795135, 3.97632837, 0.79619998, 0.04670000, -0.60130000, -0.04710000, -0.00100000, 0.00000000, 0.00000000, 0.00000000, 0.00000000, 0.00000000, 0.00000000
2, 0.7599, 76, -0.18280046, -0.49828604, -0.54993629, 70.13537598, 121.24589539, 28.91731262, 0.00000000, 0.00000000, 0.00000000, 46.23770905, -3.84454799, -124.06259155, 0.44270000, -0.15670000, 0.36109999, 0.80559999, 0.11100001, -0.21900001, -0.14200000, 0.00000000, 0.00000000, 0.00000000, 0.00000000
2, 0.7699, 77, -0.18276599, -0.49128795, -0.55186725, 66.78487396, 118.68667603, 36.48348236, 0.00000000, 0.00000000, 0.00000000, 46.83931732, -3.29450822, -122.95105743, 0.44799998, -0.16650000, 0.36159998, 0.80039996, 0.12200001, -0.23300001, -0.13200000, 0.00000000, 0.00000000, 0.00000000, 0.00000000
2, 0.7799, 78, -0.18906321, -0.50842804, -0.53308076, 64.98132324, 116.54705811, 42.58373260, 0.00000000, 0.00000000, 0.00000000, 47.42372894, -2.81322384, -121.80513763, 0.45369998, -0.17580000, 0.36219999, 0.79490000, 0.13700001, -0.22400001, -0.14400001, 0.00000000, 0.00000000, 0.00000000, 0.00000000
1, 0.7800, 78, -0.28276876, 0.11827776, -0.87630326, 59.30034256, -83.62732697, 109.48323059, 0.00000000, 0.00000000, 0.00000000, -4.72117376, -15.66466999, 145.22193909, -0.30109999, 0.11770000, -0.07960000, 0.94290000, 0.01700000, -0.03700000, -0.08300000, 0.00000000, 0.00000000, 0.00000000, 0.00000000
3, 0.8000, 80, 0.96242476, 0.01735642, -0.27181911, -0.00000009, 0.00000004, -0.00000006, 0.00000000, 0.00000000, 0.00000000, -3.70703816, 74.15795135, 3.97059870, 0.79619998, 0.04670000, -0.60130000, -0.04710000, 0.00000000, 0.00000000, 0.00000000, 0.00000000, 0.00000000, 0.00000000, 0.00000000
1, 0.7900, 79, -0.28963086, 0.12032236, -0.88533342, 59.03183365, -64.43582153, 111.60211945, 0.00000000, 0.00000000, 0.00000000, -4.46334267, -16.22043991, 146.43659973, -0.29080001, 0.12379999, -0.07759999, 0.94549996, 0.01300000, -0.04400000, -0.07200000, 0.00000000, 0.00000000, 0.00000000, 0.00000000
3, 0.8100, 81, 0.96242476, 0.01735642, -0.27181911, -0.00000009, 0.00000004, -0.00000006, 0.00000000, 0.00000000, 0.00000000, -3.70703816, 74.15795135, 3.97059870, 0.79619998, 0.04670000, -0.60130000, -0.04710000, 0.00000000, 0.00000000, 0.00000000, 0.00000000, 0.00000000, 0.00000000, 0.00000000
2, 0.7899, 79, -0.19355798, -0.56854683, -0.50369167, 63.45139694, 115.87021637, 49.73347473, 0.00000000, 0.00000000, 0.00000000, 48.00814819, -2.40069389, -120.60765839, 0.45979998, -0.18480000, 0.36280000, 0.78909999, 0.14900000, -0.17100000, -0.16600001, 0.00000000, 0.00000000, 0.00000000, 0.00000000
2, 0.7999, 80, -0.19742413, -0.64218765, -0.51258290, 59.91144562, 115.56867218, 54.73012161, 0.00000000, 0.00000000, 0.00000000, 48.55818939, -2.04545999, -119.38153076, 0.46619999, -0.19340000, 0.36309999, 0.78310001, 0.16000001, -0.10300001, -0.15100001, 0.00000000, 0.00000000, 0.00000000, 0.00000000
2, 0.8099, 81, -0.19532740, -0.71087223, -0.52032304, 54.27227020, 116.46938324, 59.30170441, 0.00000000, 0.00000000, 0.00000000, 49.06239319, -1.72460353, -118.11528015, 0.47299999, -0.20170000, 0.36309999, 0.77689999, 0.16300000, -0.04100000, -0.13600001, 0.00000000, 0.00000000, 0.00000000, 0.00000000
3, 0.8200, 82, 0.96242476, 0.01735642, -0.27181911, -0.00000009, 0.00000004, -0.00000006, 0.00000000, 0.00000000, 0.00000000, -3.70703816, 74.15795135, 3.97059870, 0.79619998, 0.04670000, -0.60130000, -0.04710000, 0.00000000, 0.00000000, 0.00000000, 0.00000000, 0.00000000, 0.00000000, 0.00000000
3, 0.8300, 83, 0.96142322, 0.01734748, -0.27182791, -0.00000009, 0.00000004, -0.00000006, 0.00000000, 0.00000000, 0.00000000, -3.70703816, 74.15795135, 3.97632837, 0.79619998, 0.04660000, -0.60130000, -0.04710000, 0.00000000, 0.00000000, -0.00100000, 0.00000000, 0.00000000, 0.00000000, 0.00000000
2, 0.8199, 82, -0.18649614, -0.73191154, -0.51238310, 49.31435394, 116.37813568, 61.75111771, 0.00000000, 0.00000000, 0.00000000, 49.52075577, -1.43239486, -116.82613373, 0.47999999, -0.20960000, 0.36269999, 0.77069998, 0.16000001, -0.02600000, -0.13700001, 0.00000000, 0.00000000, 0.00000000, 0.00000000
1, 0.8000, 80, -0.28467774, 0.12030648, -0.88228601, 58.90483475, -48.04066086, 113.19799042, 0.00000000, 0.00000000, 0.00000000, -4.21697092, -16.61005211, 147.65127563, -0.28049999, 0.12850000, -0.07520000, 0.94819999, 0.00100000, -0.04800000, -0.07300001, 0.00000000, 0.00000000, 0.00000000, 0.00000000
2, 0.8299, 83, -0.17874007, -0.72908884, -0.49918181, 46.31409454, 118.47101593, 62.63999939, 0.00000000, 0.00000000, 0.00000000, 49.95047760, -1.14591599, -115.51979065, 0.48709998, -0.21750000, 0.36190000, 0.76440001, 0.15600000, -0.03300000, -0.14500001, 0.00000000, 0.00000000, 0.00000000, 0.00000000
2, 0.8399, 84, -0.16309541, -0.72534609, -0.48082793, 43.96488953, 121.65100098, 63.08807373, 0.00000000, 0.00000000, 0.00000000, 50.36873627, -0.85370737, -114.17906952, 0.49429998, -0.22549999, 0.36089998, 0.75790000, 0.14600001, -0.04200000, -0.15800001, 0.00000000, 0.00000000, 0.00000000, 0.00000000
1, 0.8100, 81, -0.29379776, 0.11627126, -0.87445885, 58.96930695, -34.61980057, 114.96092224, 0.00000000, 0.00000000, 0.00000000, -3.98205805, -16.87361336, 148.87167358, -0.27010000, 0.13200000, -0.07240000, 0.95089996, 0.00500000, -0.04800000, -0.07900000, 0.00000000, 0.00000000, 0.00000000, 0.00000000
3, 0.8400, 84, 0.96142322, 0.01734748, -0.27182791, -0.00000009, 0.00000004, -0.00000006, 0.00000000, 0.00000000, 0.00000000, -3.70703816, 74.15795135, 3.97059870, 0.79619998, 0.04660000, -0.60130000, -0.04710000, 0.00000000, 0.00000000, 0.00000000, 0.00000000, 0.00000000, 0.00000000, 0.00000000
3, 0.8500, 85, 0.96142322, 0.01734748, -0.27182791, -0.00000009, 0.00000004, -0.00000006, 0.00000000, 0.00000000, 0.00000000, -3.70703816, 74.15222168, 3.97059870, 0.79619998, 0.04670000, -0.60130000, -0.04710000, 0.00000000, 0.00000000, 0.00000000, 0.00000000, 0.00000000, 0.00000000, 0.00000000
2, 0.8499, 85, -0.13951232, -0.72064948, -0.46033168, 41.95858765, 124.76681519, 64.00039673, 0.00000000, 0.00000000, 0.00000000, 50.76980591, -0.55576921, -112.80970001, 0.50159997, -0.23349999, 0.35949999, 0.75129998, 0.12800001, -0.05100000, -0.17300001, 0.00000000, 0.00000000, 0.00000000, 0.00000000
1, 0.8200, 82, -0.29992643, 0.10823408, -0.86563474, 58.87891388, -24.86165810, 116.99871826, 0.00000000, 0.00000000, 0.00000000, -3.75287485, -17.04549980, 150.10926819, -0.25950000, 0.13470000, -0.06950000, 0.95369995, 0.00800000, -0.04400000, -0.08700000, 0.00000000, 0.00000000, 0.00000000, 0.00000000
2, 0.8599, 86, -0.11499689, -0.70304596, -0.43566543, 41.12041092, 127.25428009, 65.04072571, 0.00000000, 0.00000000, 0.00000000, 51.17087555, -0.25783110, -111.41168213, 0.50889999, -0.24159999, 0.35789999, 0.74449998, 0.10800000, -0.07300001, -0.19200000, 0.00000000, 0.00000000, 0.00000000, 0.00000000
1, 0.8300, 83, -0.31293648, 0.09523766, -0.86390924, 58.40146255, -19.22611237, 119.47901917, 0.00000000, 0.00000000, 0.00000000, -3.54088044, -17.16009140, 151.36976624, -0.24869999, 0.13689999, -0.06640000, 0.95649999, 0.01900000, -0.03500000, -0.08900000, 0.00000000, 0.00000000, 0.00000000, 0.00000000
1, 0.8400, 84, -0.32491326, 0.08125203, -0.86417276, 57.01781082, -17.71165466, 122.04905701, 0.00000000, 0.00000000, 0.00000000, -3.35180426, -17.26322365, 152.65892029, -0.23779999, 0.13890000, -0.06350000, 0.95919997, 0.02900000, -0.02500000, -0.08800001, 0.00000000, 0.00000000, 0.00000000, 0.00000000
3, 0.8600, 86, 0.96242476, 0.01735642, -0.27181911, -0.00000009, 0.00000004, -0.00000006, 0.00000000, 0.00000000, 0.00000000, -3.71276784, 74.15222168, 3.96486950, 0.79619998, 0.04670000, -0.60130000, -0.04710000, -0.00100000, 0.00000000, 0.00000000, 0.00000000, 0.00000000, 0.00000000, 0.00000000
3, 0.8700, 87, 0.96242476, 0.01735642, -0.27181911, -0.00000009, 0.00000004, -0.00000006, 0.00000000, 0.00000000, 0.00000000, -3.71849704, 74.15222168, 3.96486950, 0.79619998, 0.04670000, -0.60130000, -0.04710000, 0.00000000, 0.00000000, 0.00100000, 0.00000000, 0.00000000, 0.00000000, 0.00000000
2, 0.8699, 87, -0.08053682, -0.70241928, -0.41002402, 42.21220398, 128.14675903, 66.15582275, 0.00000000, 0.00000000, 0.00000000, 51.59486771, 0.01718874, -109.99646759, 0.51629996, -0.24969999, 0.35630000, 0.73749995, 0.07900000, -0.07900000, -0.21300001, 0.00000000, 0.00000000, 0.00000000, 0.00000000
1, 0.8500, 85, -0.34088495, 0.07326674, -0.86542779, 54.72982025, -19.39794922, 124.13658142, 0.00000000, 0.00000000, 0.00000000, -3.19137597, -17.38927460, 153.97099304, -0.22659999, 0.14100000, -0.06080000, 0.96169996, 0.04200000, -0.01900000, -0.08700000, 0.00000000, 0.00000000, 0.00000000, 0.00000000
2, 0.8799, 88, -0.06022627, -0.70288962, -0.37257117, 43.95314026, 127.50743866, 66.98178864, 0.00000000, 0.00000000, 0.00000000, 52.03604126, 0.28074941, -108.58126831, 0.52359998, -0.25779998, 0.35490000, 0.73030001, 0.06300000, -0.08300000, -0.24400002, 0.00000000, 0.00000000, 0.00000000, 0.00000000
1, 0.8600, 86, -0.33713704, 0.07318565, -0.84944338, 52.29506302, -22.73089600, 124.95262146, 0.00000000, 0.00000000, 0.00000000, -3.06532526, -17.54970169, 155.28880310, -0.21529999, 0.14330000, -0.05840000, 0.96410000, 0.03700000, -0.02100000, -0.10200001, 0.00000000, 0.00000000, 0.00000000, 0.00000000
1, 0.8700, 87, -0.32039499, 0.07709892, -0.83327037, 49.41555405, -27.60154533, 124.95288086, 0.00000000, 0.00000000, 0.00000000, -2.97365189, -17.75596809, 156.61807251, -0.20400000, 0.14590000, -0.05630000, 0.96629995, 0.01700000, -0.02700000, -0.11800001, 0.00000000, 0.00000000, 0.00000000, 0.00000000
3, 0.8800, 88, 0.96242476, 0.01735642, -0.27181911, -0.00000009, 0.00000004, -0.00000006, 0.00000000, 0.00000000, 0.00000000, -3.71849704, 74.15222168, 3.95913982, 0.79619998, 0.04670000, -0.60130000, -0.04710000, -0.00200000, 0.00000000, 0.00000000, 0.00000000, 0.00000000, 0.00000000, 0.00000000
3, 0.8900, 89, 0.96242476, 0.01735642, -0.27181911, -0.00000009, 0.00000004, -0.00000006, 0.00000000, 0.00000000, 0.00000000, -3.71849704, 74.15222168, 3.95913982, 0.79619998, 0.04670000, -0.60130000, -0.04710000, 0.00000000, 0.00000000, 0.00100000, 0.00000000, 0.00000000, 0.00000000, 0.00000000
2, 0.8899, 89, -0.03488769, -0.72526163, -0.33828884, 46.07178116, 125.80990601, 66.31206512, 0.00000000, 0.00000000, 0.00000000, 52.50586700, 0.52712137, -107.17752075, 0.53060001, -0.26589999, 0.35349998, 0.72289997, 0.04200000, -0.06500001, -0.27100003, 0.00000000, 0.00000000, 0.00000000, 0.00000000
1, 0.8800, 88, -0.32464430, 0.07502089, -0.81739819, 46.43423462, -33.03667068, 124.14523315, 0.00000000, 0.00000000, 0.00000000, -2.91635609, -18.02525711, 157.93586731, -0.19280000, 0.14890000, -0.05460000, 0.96829998, 0.01700000, -0.02600000, -0.13100001, 0.00000000, 0.00000000, 0.00000000, 0.00000000
2, 0.8999, 90, -0.01918162, -0.74937576, -0.32425192, 46.74460602, 123.27445221, 64.69450378, 0.00000000, 0.00000000, 0.00000000, 52.99288559, 0.75630456, -105.80242157, 0.53740001, -0.27379999, 0.35220000, 0.71559995, 0.03100000, -0.04700000, -0.27900001, 0.00000000, 0.00000000, 0.00000000, 0.00000000
3, 0.9000, 90, 0.96242476, 0.01735642, -0.27181911, -0.00000009, 0.00000004, -0.00000006, 0.00000000, 0.00000000, 0.00000000, -3.72422671, 74.15222168, 3.95913982, 0.79619998, 0.04670000, -0.60130000, -0.04710000, 0.00000000, 0.00000000, 0.00000000, 0.00000000, 0.00000000, 0.00000000, 0.00000000
1, 0.8900, 89, -0.33605522, 0.08388897, -0.79254913, 44.16363907, -38.92022324, 122.65727997, 0.00000000, 0.00000000, 0.00000000, -2.88197851, -18.35184288, 159.24794006, -0.18159999, 0.15230000, -0.05310000, 0.96999997, 0.02300000, -0.03600000, -0.15500000, 0.00000000, 0.00000000, 0.00000000, 0.00000000
3, 0.9100, 91, 0.96242476, 0.01735642, -0.27181911, -0.00000009, 0.00000004, -0.00000006, 0.00000000, 0.00000000, 0.00000000, -3.71849704, 74.15222168, 3.95913982, 0.79619998, 0.04670000, -0.60130000, -0.04710000, -0.00100000, 0.00000000, 0.00000000, 0.00000000, 0.00000000, 0.00000000, 0.00000000
2, 0.9099, 91, -0.00832411, -0.76940101, -0.31827673, 48.00970840, 120.11899567, 62.67922211, 0.00000000, 0.00000000, 0.00000000, 53.49135590, 0.97402853, -104.46743011, 0.54380000, -0.28160000, 0.35110000, 0.70819998, 0.02400000, -0.03100000, -0.27800003, 0.00000000, 0.00000000, 0.00000000, 0.00000000
1, 0.9000, 90, -0.36046007, 0.09775971, -0.76880687, 42.36953354, -46.00070572, 120.94329071, 0.00000000, 0.00000000, 0.00000000, -2.87051940, -18.75291443, 160.54855347, -0.17060000, 0.15629999, -0.05190000, 0.97139996, 0.04100000, -0.05000000, -0.17700000, 0.00000000, 0.00000000, 0.00000000, 0.00000000
3, 0.9200, 92, 0.96242476, 0.01735642, -0.27181911, -0.00000009, 0.00000004, -0.00000006, 0.00000000, 0.00000000, 0.00000000, -3.71849704, 74.15222168, 3.95913982, 0.79619998, 0.04670000, -0.60130000, -0.04710000, 0.00000000, 0.00000000, 0.00000000, 0.00000000, 0.00000000, 0.00000000, 0.00000000
2, 0.9199, 92, -0.00340965, -0.77643418, -0.31426102, 50.50421524, 116.90650940, 60.62510300, 0.00000000, 0.00000000, 0.00000000, 54.02420807, 1.17456377, -103.16680908, 0.54979998, -0.28929999, 0.35009998, 0.70089996, 0.02200000, -0.03000000, -0.27500001, 0.00000000, 0.00000000, 0.00000000, 0.00000000
1, 0.9100, 91, -0.42251059, 0.10575247, -0.76748025, 40.56505585, -52.68644333, 119.80509949, 0.00000000, 0.00000000, 0.00000000, -2.88770819, -19.21701050, 161.83770752, -0.15959999, 0.16080000, -0.05080000, 0.97259998, 0.09600000, -0.05800000, -0.17500001, 0.00000000, 0.00000000, 0.00000000, 0.00000000
3, 0.9300, 93, 0.96242476, 0.01735642, -0.27181911, -0.00000009, 0.00000004, -0.00000006, 0.00000000, 0.00000000, 0.00000000, -3.72422671, 74.15222168, 3.95913982, 0.79619998, 0.04670000, -0.60130000, -0.04710000, -0.00100000, 0.00000000, 0.00000000, 0.00000000, 0.00000000, 0.00000000, 0.00000000
2, 0.9299, 93, -0.00937307, -0.78437996, -0.31544465, 53.87882614, 114.49217987, 58.41860199, 0.00000000, 0.00000000, 0.00000000, 54.59143448, 1.36936951, -101.89484406, 0.55549997, -0.29709998, 0.34930000, 0.69349998, 0.03200000, -0.02700000, -0.26600000, 0.00000000, 0.00000000, 0.00000000, 0.00000000
1, 0.9200, 92, -0.44964576, 0.11871006, -0.76071531, 39.62709808, -59.08658981, 119.02574158, 0.00000000, 0.00000000, 0.00000000, -2.92208576, -19.74413109, 163.13259888, -0.14870000, 0.16589999, -0.05000000, 0.97349995, 0.11500000, -0.07100000, -0.18000001, 0.00000000, 0.00000000, 0.00000000, 0.00000000
3, 0.9400, 94, 0.96242476, 0.01735642, -0.27181911, -0.00000009, 0.00000004, -0.00000006, 0.00000000, 0.00000000, 0.00000000, -3.72422671, 74.15795135, 3.95341015, 0.79619998, 0.04670000, -0.60130000, -0.04710000, -0.00100000, 0.00000000, 0.00000000, 0.00000000, 0.00000000, 0.00000000, 0.00000000
2, 0.9399, 94, -0.02249547, -0.79940784, -0.30577612, 57.57046509, 113.41372681, 58.12271500, 0.00000000, 0.00000000, 0.00000000, 55.19876862, 1.54698646, -100.62860870, 0.56099999, -0.30500001, 0.34880000, 0.68589997, 0.04800000, -0.01800000, -0.26700002, 0.00000000, 0.00000000, 0.00000000, 0.00000000
1, 0.9300, 93, -0.45489109, 0.14162506, -0.74762654, 38.88225174, -69.32145691, 118.69847107, 0.00000000, 0.00000000, 0.00000000, -2.97938132, -20.38011551, 164.43321228, -0.13769999, 0.17170000, -0.04930000, 0.97419995, 0.11000001, -0.09300000, -0.18900001, 0.00000000, 0.00000000, 0.00000000, 0.00000000
3, 0.9500, 95, 0.96242476, 0.01735642, -0.27181911, -0.00000009, 0.00000004, -0.00000006, 0.00000000, 0.00000000, 0.00000000, -3.72422671, 74.15795135, 3.95341015, 0.79619998, 0.04670000, -0.60130000, -0.04710000, -0.00100000, 0.00000000, 0.00000000, 0.00000000, 0.00000000, 0.00000000, 0.00000000
2, 0.9499, 95, -0.02986802, -0.79368228, -0.28173909, 61.61561203, 113.47512817, 57.66897202, 0.00000000, 0.00000000, 0.00000000, 55.85194397, 1.71314442, -99.36809540, 0.56619996, -0.31299999, 0.34849998, 0.67809999, 0.05900000, -0.03000000, -0.28200001, 0.00000000, 0.00000000, 0.00000000, 0.00000000
1, 0.9400, 94, -0.46518975, 0.14952904, -0.72974670, 38.59347916, -79.04450226, 118.83942413, 0.00000000, 0.00000000, 0.00000000, -3.05959558, -21.10777092, 165.74528503, -0.12670000, 0.17839999, -0.04870000, 0.97450000, 0.10900000, -0.10000000, -0.20200001, 0.00000000, 0.00000000, 0.00000000, 0.00000000
3, 0.9600, 96, 0.96242476, 0.01735642, -0.27181911, -0.00000009, 0.00000004, -0.00000006, 0.00000000, 0.00000000, 0.00000000, -3.72422671, 74.15795135, 3.95341015, 0.79619998, 0.04670000, -0.60130000, -0.04710000, -0.00100000, 0.00000000, 0.00000000, 0.00000000, 0.00000000, 0.00000000, 0.00000000
2, 0.9599, 96, -0.04125971, -0.78896582, -0.25576845, 65.08637238, 114.85474396, 56.58497620, 0.00000000, 0.00000000, 0.00000000, 56.53949356, 1.88503170, -98.09613037, 0.57120001, -0.32130000, 0.34819999, 0.67009997, 0.07400000, -0.04100000, -0.29800001, 0.00000000, 0.00000000, 0.00000000, 0.00000000
1, 0.9500, 95, -0.48132071, 0.15148960, -0.72195059, 38.62162399, -83.16020203, 118.71340179, 0.00000000, 0.00000000, 0.00000000, -3.15699840, -21.86980629, 167.06881714, -0.11560000, 0.18539999, -0.04820000, 0.97459996, 0.11300001, -0.10100000, -0.20500001, 0.00000000, 0.00000000, 0.00000000, 0.00000000
3, 0.9700, 97, 0.96242476, 0.01735642, -0.27181911, -0.00000009, 0.00000004, -0.00000006, 0.00000000, 0.00000000, 0.00000000, -3.72995639, 74.15795135, 3.95341015, 0.79619998, 0.04670000, -0.60130000, -0.04710000, 0.00000000, 0.00000000, 0.00000000, 0.00000000, 0.00000000, 0.00000000, 0.00000000
2, 0.9699, 97, -0.04760316, -0.78620970, -0.23375505, 68.49663544, 116.17579651, 55.61444473, 0.00000000, 0.00000000, 0.00000000, 57.27288055, 2.05118966, -96.81843567, 0.57599998, -0.32979998, 0.34790000, 0.66200000, 0.08200000, -0.05100000, -0.30900002, 0.00000000, 0.00000000, 0.00000000, 0.00000000
1, 0.9600, 96, -0.47345325, 0.15544455, -0.71385264, 38.57059097, -82.69583130, 117.96662903, 0.00000000, 0.00000000, 0.00000000, -3.27158999, -22.63183975, 168.39234924, -0.10460000, 0.19229999, -0.04770000, 0.97450000, 0.09300000, -0.10300001, -0.20800000, 0.00000000, 0.00000000, 0.00000000, 0.00000000
3, 0.9800, 98, 0.96242476, 0.01735642, -0.27181911, -0.00000009, 0.00000004, -0.00000006, 0.00000000, 0.00000000, 0.00000000, -3.72422671, 74.15222168, 3.95341015, 0.79619998, 0.04670000, -0.60130000, -0.04710000, 0.00000000, 0.00000000, 0.00000000, 0.00000000, 0.00000000, 0.00000000, 0.00000000
2, 0.9799, 98, -0.04290120, -0.77445614, -0.21648948, 71.21653748, 116.48329163, 53.99351501, 0.00000000, 0.00000000, 0.00000000, 58.02918243, 2.21734738, -95.54647064, 0.58059996, -0.33840001, 0.34770000, 0.65369999, 0.08000001, -0.07000000, -0.31600001, 0.00000000, 0.00000000, 0.00000000, 0.00000000
1, 0.9700, 97, -0.44958788, 0.16139513, -0.70554781, 37.81873322, -80.16777039, 116.41021729, 0.00000000, 0.00000000, 0.00000000, -3.40909982, -23.36522675, 169.71014404, -0.09370000, 0.19890000, -0.04710000, 0.97429997, 0.05700000, -0.10800000, -0.21200001, 0.00000000, 0.00000000, 0.00000000, 0.00000000
3, 0.9900, 99, 0.96242476, 0.01735642, -0.27181911, -0.00000009, 0.00000004, -0.00000006, 0.00000000, 0.00000000, 0.00000000, -3.71276784, 74.15222168, 3.97059870, 0.79619998, 0.04670000, -0.60130000, -0.04710000, 0.00000000, 0.00100000, 0.00000000, 0.00000000, 0.00000000, 0.00000000, 0.00000000
2, 0.9899, 99, -0.03921245, -0.76370788, -0.19824696, 73.28208923, 116.32670593, 52.99053574, 0.00000000, 0.00000000, 0.00000000, 58.81413651, 2.37777567, -94.27450562, 0.58489996, -0.34709999, 0.34750000, 0.64529997, 0.08000001, -0.08800001, -0.32200003, 0.00000000, 0.00000000, 0.00000000, 0.00000000
1, 0.9800, 98, -0.45571437, 0.17035291, -0.69856852, 36.63927460, -75.24294281, 115.19890594, 0.00000000, 0.00000000, 0.00000000, -3.56379867, -24.04704666, 171.01649475, -0.08300000, 0.20520000, -0.04660000, 0.97399998, 0.05200000, -0.11400001, -0.21400002, 0.00000000, 0.00000000, 0.00000000, 0.00000000
3, 1.0000, 100, 0.96242476, 0.01735642, -0.27181911, -0.00000009, 0.00000004, -0.00000006, 0.00000000, 0.00000000, 0.00000000, -3.71276784, 74.15222168, 3.97059870, 0.79619998, 0.04670000, -0.60130000, -0.04710000, -0.00200000, 0.00000000, 0.00000000, 0.00000000, 0.00000000, 0.00000000, 0.00000000
2, 0.9999, 100, -0.04840980, -0.74690294, -0.18415576, 75.22686768, 115.54106903, 52.21045303, 0.00000000, 0.00000000, 0.00000000, 59.62200546, 2.51528549, -93.01399994, 0.58899999, -0.35589999, 0.34739998, 0.63679999, 0.09100001, -0.11200000, -0.32400000, 0.00000000, 0.00000000, 0.00000000, 0.00000000
1, 0.9900, 99, -0.44907993, 0.18123139, -0.67647702, 36.10070038, -69.56874084, 113.59701538, 0.00000000, 0.00000000, 0.00000000, -3.73568606, -24.67156982, 172.30564880, -0.07240000, 0.21089999, -0.04610000, 0.97369999, 0.03500000, -0.12300000, -0.23100001, 0.00000000, 0.00000000, 0.00000000, 0.00000000
3, 1.0100, 101, 0.96242476, 0.01735642, -0.27181911, -0.00000009, 0.00000004, -0.00000006, 0.00000000, 0.00000000, 0.00000000, -3.71276784, 74.15222168, 3.96486950, 0.79619998, 0.04670000, -0.60130000, -0.04710000, 0.00000000, 0.00000000, 0.00000000, 0.00000000, 0.00000000, 0.00000000, 0.00000000
2, 1.0099, 101, -0.06952027, -0.76192212, -0.17360862, 76.20402527, 115.63914490, 53.20266724, 0.00000000, 0.00000000, 0.00000000, 60.44133377, 2.63560677, -91.74203491, 0.59310001, -0.36460000, 0.34729999, 0.62809998, 0.11500000, -0.10400000, -0.32300001, 0.00000000, 0.00000000, 0.00000000, 0.00000000
1, 1.0000, 100, -0.44043115, 0.20211072, -0.65626729, 36.03558350, -65.95521545, 112.39893341, 0.00000000, 0.00000000, 0.00000000, -3.91903234, -25.25025749, 173.59480286, -0.06190000, 0.21619999, -0.04550000, 0.97329998, 0.01700000, -0.14100000, -0.24700001, 0.00000000, 0.00000000, 0.00000000, 0.00000000
2, 1.0199, 102, -0.07747673, -0.77085930, -0.17483431, 76.51406860, 116.79826355, 55.51379395, 0.00000000, 0.00000000, 0.00000000, 61.26639557, 2.71582079, -90.45287323, 0.59719998, -0.37320000, 0.34719998, 0.61909997, 0.12500000, -0.10100000, -0.30900002, 0.00000000, 0.00000000, 0.00000000, 0.00000000
1, 1.0100, 101, -0.43780565, 0.21798541, -0.63417983, 36.73383331, -64.22977448, 111.60955811, 0.00000000, 0.00000000, 0.00000000, -4.10810900, -25.81748772, 174.87823486, -0.05150000, 0.22139999, -0.04480000, 0.97270000, 0.00600000, -0.15400001, -0.26400000, 0.00000000, 0.00000000, 0.00000000, 0.00000000
3, 1.0200, 102, 0.96242476, 0.01735642, -0.27181911, -0.00000009, 0.00000004, -0.00000006, 0.00000000, 0.00000000, 0.00000000, -3.70703816, 74.15222168, 3.97059870, 0.79619998, 0.04670000, -0.60130000, -0.04710000, 0.00000000, 0.00000000, 0.00000000, 0.00000000, 0.00000000, 0.00000000, 0.00000000
2, 1.0299, 103, -0.10361704, -0.77394181, -0.16122499, 76.24009705, 118.12940979, 57.75978851, 0.00000000, 0.00000000, 0.00000000, 62.09145355, 2.76738691, -89.13507080, 0.60130000, -0.38180000, 0.34700000, 0.60990000, 0.15100001, -0.10500000, -0.31000000, 0.00000000, 0.00000000, 0.00000000, 0.00000000
1, 1.0200, 102, -0.42217052, 0.22886245, -0.61198163, 37.78593826, -63.70608139, 111.05212402, 0.00000000, 0.00000000, 0.00000000, -4.29145527, -26.36752510, 176.16166687, -0.04100000, 0.22659999, -0.04400000, 0.97209996, -0.01800000, -0.16200000, -0.28200001, 0.00000000, 0.00000000, 0.00000000, 0.00000000
3, 1.0300, 103, 0.96242476, 0.01735642, -0.27181911, -0.00000009, 0.00000004, -0.00000006, 0.00000000, 0.00000000, 0.00000000, -3.69557881, 74.15795135, 3.98205805, 0.79619998, 0.04660000, -0.60130000, -0.04710000, 0.00000000, 0.00100000, 0.00000000, 0.00000000, 0.00000000, 0.00000000, 0.00000000
2, 1.0399, 104, -0.13387126, -0.75119561, -0.13936925, 75.42141724, 122.28373718, 57.66493607, 0.00000000, 0.00000000, 0.00000000, 62.91651535, 2.82468295, -87.78289032, 0.60560000, -0.39049998, 0.34649998, 0.60049999, 0.18300001, -0.13400000, -0.31900001, 0.00000000, 0.00000000, 0.00000000, 0.00000000
1, 1.0300, 103, -0.38956705, 0.24972285, -0.58849931, 39.37465286, -64.43519592, 110.15443420, 0.00000000, 0.00000000, 0.00000000, -4.47480154, -26.92902565, 177.44508362, -0.03070000, 0.23169999, -0.04310000, 0.97129995, -0.05900000, -0.18100001, -0.30100003, 0.00000000, 0.00000000, 0.00000000, 0.00000000
3, 1.0400, 104, 0.96243405, 0.01636206, -0.27182776, -0.00000009, 0.00000004, -0.00000006, 0.00000000, 0.00000000, 0.00000000, -3.69557881, 74.15795135, 3.98778772, 0.79619998, 0.04660000, -0.60130000, -0.04710000, -0.00100000, 0.00000000, -0.00100000, 0.00000000, 0.00000000, 0.00000000, 0.00000000
2, 1.0499, 105, -0.11813124, -0.77130121, -0.12729575, 76.34294128, 125.17224884, 58.44852066, 0.00000000, 0.00000000, 0.00000000, 63.74730301, 2.86478972, -86.40206909, 0.60969996, -0.39929998, 0.34590000, 0.59069997, 0.16800001, -0.12100001, -0.31800002, 0.00000000, 0.00000000, 0.00000000, 0.00000000
1, 1.0400, 104, -0.35099983, 0.27356958, -0.56292778, 41.26791000, -65.44094849, 108.39832306, 0.00000000, 0.00000000, 0.00000000, -4.64668894, -27.49625397, 178.72277832, -0.02040000, 0.23699999, -0.04200000, 0.97029996, -0.10700001, -0.20200001, -0.32200003, 0.00000000, 0.00000000, 0.00000000, 0.00000000
3, 1.0500, 105, 0.96242476, 0.01735642, -0.27181911, -0.00000009, 0.00000004, -0.00000006, 0.00000000, 0.00000000, 0.00000000, -3.69557881, 74.15795135, 3.98205805, 0.79619998, 0.04660000, -0.60130000, -0.04710000, -0.00100000, 0.00000000, 0.00000000, 0.00000000, 0.00000000, 0.00000000, 0.00000000
2, 1.0599, 106, -0.11144485, -0.80638820, -0.11050822, 77.12380219, 126.67486572, 60.59734726, 0.00000000, 0.00000000, 0.00000000, 64.58955383, 2.87051940, -84.99258423, 0.61399996, -0.40809998, 0.34520000, 0.58069998, 0.16100001, -0.09300000, -0.32200003, 0.00000000, 0.00000000, 0.00000000, 0.00000000
1, 1.0500, 105, -0.33024651, 0.29847863, -0.54951358, 43.34301758, -65.75173950, 105.78463745, 0.00000000, 0.00000000, 0.00000000, -4.79565859, -28.06348038, 179.97755432, -0.01030000, 0.24219999, -0.04060000, 0.96929997, -0.13600001, -0.22500001, -0.33000001, 0.00000000, 0.00000000, 0.00000000, 0.00000000
3, 1.0600, 106, 0.96242476, 0.01735642, -0.27181911, -0.00000009, 0.00000004, -0.00000006, 0.00000000, 0.00000000, 0.00000000, -3.69557881, 74.15795135, 3.98205805, 0.79619998, 0.04660000, -0.60130000, -0.04710000, -0.00200000, 0.00000000, 0.00000000, 0.00000000, 0.00000000, 0.00000000, 0.00000000
2, 1.0699, 107, -0.09378182, -0.84547746, -0.09459583, 77.20003510, 127.43607330, 62.90171814, 0.00000000, 0.00000000, 0.00000000, 65.43180084, 2.83614206, -83.57164764, 0.61820000, -0.41669998, 0.34450001, 0.57040000, 0.14400001, -0.05900000, -0.32500002, 0.00000000, 0.00000000, 0.00000000, 0.00000000
1, 1.0600, 106, -0.35295710, 0.31257042, -0.56958616, 45.57783127, -63.02819061, 102.83694458, 0.00000000, 0.00000000, 0.00000000, -4.92170906, -28.60206223, -178.79153442, -0.00040000, 0.24720000, -0.03900000, 0.96809995, -0.12200001, -0.23800001, -0.30500001, 0.00000000, 0.00000000, 0.00000000, 0.00000000
3, 1.0700, 107, 0.96242476, 0.01735642, -0.27181911, -0.00000009, 0.00000004, -0.00000006, 0.00000000, 0.00000000, 0.00000000, -3.70130849, 74.15795135, 3.98205805, 0.79619998, 0.04670000, -0.60130000, -0.04710000, 0.00000000, 0.00000000, 0.00000000, 0.00000000, 0.00000000, 0.00000000, 0.00000000
3, 1.0800, 108, 0.96242476, 0.01735642, -0.27181911, -0.00000009, 0.00000004, -0.00000006, 0.00000000, 0.00000000, 0.00000000, -3.70130849, 74.16368103, 3.98205805, 0.79609996, 0.04670000, -0.60130000, -0.04710000, -0.00100000, 0.00000000, 0.00000000, 0.00000000, 0.00000000, 0.00000000, 0.00000000
2, 1.0799, 108, -0.08583598, -0.89533383, -0.09400941, 75.50108337, 126.18972015, 66.36882782, 0.00000000, 0.00000000, 0.00000000, 66.25685883, 2.74446869, -82.14498901, 0.62250000, -0.42499998, 0.34379998, 0.55989999, 0.13500001, -0.01600000, -0.31200001, 0.00000000, 0.00000000, 0.00000000, 0.00000000
1, 1.0700, 107, -0.43993190, 0.30891487, -0.63540751, 47.29424286, -54.31248856, 100.93280792, 0.00000000, 0.00000000, 0.00000000, -5.02484131, -29.05469894, -177.59405518, 0.00920000, 0.25139999, -0.03720000, 0.96709996, -0.04200000, -0.23300001, -0.23500001, 0.00000000, 0.00000000, 0.00000000, 0.00000000
3, 1.0900, 109, 0.96242476, 0.01735642, -0.27181911, -0.00000009, 0.00000004, -0.00000006, 0.00000000, 0.00000000, 0.00000000, -3.70130849, 74.16368103, 3.98205805, 0.79609996, 0.04670000, -0.60130000, -0.04710000, -0.00200000, 0.00000000, 0.00000000, 0.00000000, 0.00000000, 0.00000000, 0.00000000
2, 1.0899, 109, -0.07740576, -0.92991525, -0.12235865, 72.16687775, 121.30559540, 69.72457123, 0.00000000, 0.00000000, 0.00000000, 67.04754639, 2.58404064, -80.75270081, 0.62680000, -0.43279999, 0.34329998, 0.54939997, 0.12400001, 0.01200000, -0.27000001, 0.00000000, 0.00000000, 0.00000000, 0.00000000
3, 1.1000, 110, 0.96242476, 0.01735642, -0.27181911, -0.00000009, 0.00000004, -0.00000006, 0.00000000, 0.00000000, 0.00000000, -3.70130849, 74.16368103, 3.98205805, 0.79609996, 0.04670000, -0.60130000, -0.04710000, 0.00000000, 0.00000000, 0.00000000, 0.00000000, 0.00000000, 0.00000000, 0.00000000
2, 1.0999, 110, -0.07810520, -0.94067109, -0.14055437, 68.17988586, 112.31734467, 73.66964722, 0.00000000, 0.00000000, 0.00000000, 67.78665924, 2.33766842, -79.42916107, 0.63099998, -0.43959999, 0.34320000, 0.53899997, 0.12100001, 0.01800000, -0.24000001, 0.00000000, 0.00000000, 0.00000000, 0.00000000
1, 1.0800, 108, -0.48109588, 0.29819289, -0.68779552, 49.52911758, -41.98014832, 97.72449493, 0.00000000, 0.00000000, 0.00000000, -5.09932566, -29.38701439, -176.43095398, 0.01870000, 0.25459999, -0.03510000, 0.96619999, -0.00700000, -0.22100002, -0.18000001, 0.00000000, 0.00000000, 0.00000000, 0.00000000
1, 1.0900, 109, -0.44393662, 0.30823332, -0.69822699, 50.80547333, -32.50129318, 93.57393646, 0.00000000, 0.00000000, 0.00000000, -5.13370323, -29.62765694, -175.33087158, 0.02780000, 0.25700000, -0.03280000, 0.96539998, -0.04800000, -0.23000000, -0.16700001, 0.00000000, 0.00000000, 0.00000000, 0.00000000
3, 1.1100, 111, 0.96242476, 0.01735642, -0.27181911, -0.00000009, 0.00000004, -0.00000006, 0.00000000, 0.00000000, 0.00000000, -3.70130849, 74.16368103, 3.98205805, 0.79609996, 0.04670000, -0.60130000, -0.04710000, 0.00000000, 0.00000000, 0.00000000, 0.00000000, 0.00000000, 0.00000000, 0.00000000
2, 1.1099, 111, -0.09816492, -0.93074626, -0.13273090, 67.12901306, 102.59689331, 77.02269745, 0.00000000, 0.00000000, 0.00000000, 68.50285339, 1.99962330, -78.19157410, 0.63510001, -0.44579998, 0.34360000, 0.52880001, 0.13500001, 0.00300000, -0.23600002, 0.00000000, 0.00000000, 0.00000000, 0.00000000
3, 1.1200, 112, 0.96242476, 0.01735642, -0.27181911, -0.00000009, 0.00000004, -0.00000006, 0.00000000, 0.00000000, 0.00000000, -3.70130849, 74.16368103, 3.97632837, 0.79609996, 0.04670000, -0.60130000, -0.04710000, 0.00000000, 0.00000000, 0.00000000, 0.00000000, 0.00000000, 0.00000000, 0.00000000
2, 1.1199, 112, -0.10630354, -0.93681824, -0.12288685, 66.88785553, 95.48505402, 80.86827087, 0.00000000, 0.00000000, 0.00000000, 69.21332550, 1.59282315, -77.00555420, 0.63909996, -0.45150000, 0.34459999, 0.51849997, 0.13700001, 0.00400000, -0.23500001, 0.00000000, 0.00000000, 0.00000000, 0.00000000
1, 1.1000, 110, -0.39716366, 0.33214411, -0.68550944, 51.89447021, -28.84985924, 88.82945251, 0.00000000, 0.00000000, 0.00000000, -5.13370323, -29.83965111, -174.27662659, 0.03660000, 0.25900000, -0.03040000, 0.96459997, -0.09900001, -0.25400001, -0.17800000, 0.00000000, 0.00000000, 0.00000000, 0.00000000
1, 1.1100, 111, -0.36116129, 0.34481490, -0.62320268, 54.64474869, -28.27217865, 83.23930359, 0.00000000, 0.00000000, 0.00000000, -5.08213711, -30.04591751, -173.29113770, 0.04490000, 0.26100001, -0.02760000, 0.96379995, -0.13800001, -0.26800001, -0.23800001, 0.00000000, 0.00000000, 0.00000000, 0.00000000
3, 1.1300, 113, 0.96242476, 0.01735642, -0.27181911, -0.00000009, 0.00000004, -0.00000006, 0.00000000, 0.00000000, 0.00000000, -3.70130849, 74.16368103, 3.97632837, 0.79609996, 0.04670000, -0.60130000, -0.04710000, 0.00000000, 0.00000000, 0.00000000, 0.00000000, 0.00000000, 0.00000000, 0.00000000
2, 1.1299, 113, -0.12133469, -0.94580567, -0.11820142, 64.91808319, 90.90077972, 83.15632629, 0.00000000, 0.00000000, 0.00000000, 69.88941193, 1.12872720, -75.86537170, 0.64289999, -0.45670000, 0.34570000, 0.50830001, 0.14500001, 0.00800000, -0.22800002, 0.00000000, 0.00000000, 0.00000000, 0.00000000
3, 1.1400, 114, 0.96242476, 0.01735642, -0.27181911, -0.00000009, 0.00000004, -0.00000006, 0.00000000, 0.00000000, 0.00000000, -3.70130849, 74.16368103, 3.97632837, 0.79609996, 0.04670000, -0.60130000, -0.04710000, 0.00000000, 0.00000000, 0.00000000, 0.00000000, 0.00000000, 0.00000000, 0.00000000
2, 1.1399, 114, -0.14034955, -0.94382155, -0.11345920, 63.10744476, 87.03562927, 83.04044342, 0.00000000, 0.00000000, 0.00000000, 70.54258728, 0.64171290, -74.76528168, 0.64669997, -0.46159998, 0.34689999, 0.49820000, 0.15500000, 0.00200000, -0.22300000, 0.00000000, 0.00000000, 0.00000000, 0.00000000
1, 1.1200, 112, -0.33332467, 0.34343907, -0.54915935, 58.57083893, -28.54376602, 77.20475769, 0.00000000, 0.00000000, 0.00000000, -4.95608664, -30.26363945, -172.37440491, 0.05280000, 0.26299998, -0.02430000, 0.96300000, -0.16800001, -0.26700002, -0.31100002, 0.00000000, 0.00000000, 0.00000000, 0.00000000
1, 1.1300, 113, -0.31396315, 0.33023632, -0.50720048, 63.60663986, -30.01503944, 71.47109222, 0.00000000, 0.00000000, 0.00000000, -4.75555134, -30.49855423, -171.52069092, 0.06030000, 0.26499999, -0.02040000, 0.96209997, -0.19100001, -0.25800002, -0.35100001, 0.00000000, 0.00000000, 0.00000000, 0.00000000
3, 1.1500, 115, 0.96242476, 0.01735642, -0.27181911, -0.00000009, 0.00000004, -0.00000006, 0.00000000, 0.00000000, 0.00000000, -3.70130849, 74.15795135, 3.98205805, 0.79619998, 0.04670000, -0.60130000, -0.04710000, 0.00000000, 0.00000000, 0.00000000, 0.00000000, 0.00000000, 0.00000000, 0.00000000
2, 1.1499, 115, -0.14368729, -0.94205815, -0.09241322, 62.60186768, 85.51789093, 81.87207794, 0.00000000, 0.00000000, 0.00000000, 71.17856598, 0.14896908, -73.68812561, 0.65029997, -0.46629998, 0.34809998, 0.48819998, 0.15000001, -0.00200000, -0.23300001, 0.00000000, 0.00000000, 0.00000000, 0.00000000
3, 1.1600, 116, 0.96242476, 0.01735642, -0.27181911, -0.00000009, 0.00000004, -0.00000006, 0.00000000, 0.00000000, 0.00000000, -3.70130849, 74.15795135, 3.97632837, 0.79619998, 0.04670000, -0.60130000, -0.04710000, 0.00000000, 0.00000000, 0.00000000, 0.00000000, 0.00000000, 0.00000000, 0.00000000
3, 1.1700, 117, 0.96242476, 0.01735642, -0.27181911, -0.00000009, 0.00000004, -0.00000006, 0.00000000, 0.00000000, 0.00000000, -3.70130849, 74.15795135, 3.98205805, 0.79619998, 0.04670000, -0.60130000, -0.04710000, 0.00000000, 0.00000000, 0.00000000, 0.00000000, 0.00000000, 0.00000000, 0.00000000
2, 1.1599, 116, -0.13679729, -0.95309365, -0.08740629, 61.51651001, 86.11029053, 80.36674500, 0.00000000, 0.00000000, 0.00000000, 71.79164124, -0.33804521, -72.61669922, 0.65380001, -0.47099999, 0.34909999, 0.47819999, 0.13400000, 0.00400000, -0.22800002, 0.00000000, 0.00000000, 0.00000000, 0.00000000
2, 1.1699, 117, -0.13430975, -0.97268999, -0.11769335, 59.37117004, 86.75433350, 79.24742126, 0.00000000, 0.00000000, 0.00000000, 72.37605286, -0.82505947, -71.54526520, 0.65719998, -0.47559997, 0.34979999, 0.46829998, 0.12300000, 0.02100000, -0.18700001, 0.00000000, 0.00000000, 0.00000000, 0.00000000
1, 1.1400, 114, -0.37519976, 0.27850863, -0.55121619, 66.92142487, -31.68783569, 68.24008179, 0.00000000, 0.00000000, 0.00000000, -4.50344944, -30.76211357, -170.69563293, 0.06770000, 0.26719999, -0.01620000, 0.96109998, -0.13400000, -0.21000001, -0.30500001, 0.00000000, 0.00000000, 0.00000000, 0.00000000
1, 1.1500, 115, -0.51771927, 0.21902752, -0.64109570, 69.78024292, -29.72025108, 66.85180664, 0.00000000, 0.00000000, 0.00000000, -4.21697092, -31.00848579, -169.89349365, 0.07490000, 0.26920000, -0.01180000, 0.95999998, 0.00400000, -0.15400001, -0.21400002, 0.00000000, 0.00000000, 0.00000000, 0.00000000
1, 1.1600, 116, -0.60517412, 0.18854699, -0.73704451, 72.15484619, -23.05745125, 64.60702515, 0.00000000, 0.00000000, 0.00000000, -3.89611411, -31.19183159, -169.12001038, 0.08210000, 0.27059999, -0.00710000, 0.95909995, 0.08800001, -0.12800001, -0.11600000, 0.00000000, 0.00000000, 0.00000000, 0.00000000
1, 1.1700, 117, -0.59422320, 0.18684882, -0.79670680, 73.85506439, -15.51848602, 60.17006302, 0.00000000, 0.00000000, 0.00000000, -3.52942133, -31.31215286, -168.40380859, 0.08890000, 0.27129999, -0.00220000, 0.95829999, 0.07500000, -0.13200000, -0.05500000, 0.00000000, 0.00000000, 0.00000000, 0.00000000
1, 1.1800, 118, -0.50184762, 0.18395236, -0.81855178, 74.49036407, -12.26230049, 54.72778320, 0.00000000, 0.00000000, 0.00000000, -3.12262106, -31.40382767, -167.75064087, 0.09519999, 0.27169999, 0.00270000, 0.95760000, -0.01800000, -0.13500001, -0.03300000, 0.00000000, 0.00000000, 0.00000000, 0.00000000
3, 1.1800, 118, 0.96242476, 0.01735642, -0.27181911, -0.00000009, 0.00000004, -0.00000006, 0.00000000, 0.00000000, 0.00000000, -3.69557881, 74.15795135, 3.98205805, 0.79619998, 0.04660000, -0.60130000, -0.04710000, 0.00000000, 0.00000000, 0.00000000, 0.00000000, 0.00000000, 0.00000000, 0.00000000
2, 1.1799, 118, -0.13305116, -0.99244183, -0.13394864, 56.26813126, 86.35615540, 79.36851501, 0.00000000, 0.00000000, 0.00000000, 72.92036438, -1.32926250, -70.47956085, 0.66069996, -0.47990000, 0.35049999, 0.45839998, 0.11300001, 0.03800000, -0.16200000, 0.00000000, 0.00000000, 0.00000000, 0.00000000
3, 1.1900, 119, 0.96242476, 0.01735642, -0.27181911, -0.00000009, 0.00000004, -0.00000006, 0.00000000, 0.00000000, 0.00000000, -3.69557881, 74.15795135, 3.98205805, 0.79619998, 0.04660000, -0.60130000, -0.04710000, 0.00000000, 0.00000000, 0.00000000, 0.00000000, 0.00000000, 0.00000000, 0.00000000
3, 1.2000, 120, 0.96242476, 0.01735642, -0.27181911, -0.00000009, 0.00000004, -0.00000006, 0.00000000, 0.00000000, 0.00000000, -3.70130849, 74.15795135, 3.98205805, 0.79619998, 0.04660000, -0.60130000, -0.04710000, -0.00200000, 0.00000000, 0.00000000, 0.00000000, 0.00000000, 0.00000000, 0.00000000
2, 1.1899, 119, -0.14123963, -0.99854767, -0.12109441, 53.60719681, 84.96798706, 80.98184967, 0.00000000, 0.00000000, 0.00000000, 73.43029785, -1.85638392, -69.43104553, 0.66429996, -0.48389998, 0.35110000, 0.44849998, 0.11200000, 0.04100000, -0.16600001, 0.00000000, 0.00000000, 0.00000000, 0.00000000
2, 1.1999, 120, -0.14933999, -0.97669488, -0.11295375, 52.41517639, 82.38945770, 82.26399994, 0.00000000, 0.00000000, 0.00000000, 73.91731262, -2.41788268, -68.41118622, 0.66780001, -0.48760000, 0.35179999, 0.43860000, 0.11100001, 0.01700000, -0.16500001, 0.00000000, 0.00000000, 0.00000000, 0.00000000
1, 1.1900, 119, -0.40504515, 0.16587740, -0.80261725, 73.82531738, -16.39323044, 49.93499756, 0.00000000, 0.00000000, 0.00000000, -2.69863224, -31.54133606, -167.15475464, 0.10120000, 0.27249998, 0.00780000, 0.95669997, -0.11700001, -0.12300000, -0.04800000, 0.00000000, 0.00000000, 0.00000000, 0.00000000
1, 1.2000, 120, -0.34657323, 0.16369878, -0.76806927, 73.18863678, -27.33930588, 46.27331161, 0.00000000, 0.00000000, 0.00000000, -2.25745440, -31.79343796, -166.59898376, 0.10680000, 0.27419999, 0.01310000, 0.95559996, -0.17800000, -0.12800001, -0.08100000, 0.00000000, 0.00000000, 0.00000000, 0.00000000
3, 1.2100, 121, 0.96242476, 0.01735642, -0.27181911, -0.00000009, 0.00000004, -0.00000006, 0.00000000, 0.00000000, 0.00000000, -3.70130849, 74.16368103, 3.97632837, 0.79609996, 0.04670000, -0.60130000, -0.04710000, -0.00100000, 0.00000000, 0.00000000, 0.00000000, 0.00000000, 0.00000000, 0.00000000
2, 1.2099, 121, -0.16134019, -0.93883163, -0.10971905, 51.14002991, 78.64548492, 81.64049530, 0.00000000, 0.00000000, 0.00000000, 74.38713074, -2.99084044, -67.43142700, 0.67109996, -0.49109998, 0.35270000, 0.42879999, 0.11300001, -0.02100000, -0.16100001, 0.00000000, 0.00000000, 0.00000000, 0.00000000
3, 1.2200, 122, 0.96242476, 0.01735642, -0.27181911, -0.00000009, 0.00000004, -0.00000006, 0.00000000, 0.00000000, 0.00000000, -3.69557881, 74.16368103, 3.98205805, 0.79609996, 0.04660000, -0.60130000, -0.04710000, 0.00000000, 0.00000000, 0.00000000, 0.00000000, 0.00000000, 0.00000000, 0.00000000
2, 1.2199, 122, -0.16140285, -0.91795033, -0.10547797, 49.82203674, 73.77715302, 80.14603424, 0.00000000, 0.00000000, 0.00000000, 74.82831573, -3.56379867, -66.50323486, 0.67420000, -0.49429998, 0.35360000, 0.41939998, 0.10300001, -0.04400000, -0.15700001, 0.00000000, 0.00000000, 0.00000000, 0.00000000
1, 1.2100, 121, -0.31625026, 0.19146781, -0.72761703, 74.26058197, -42.34304810, 43.02859879, 0.00000000, 0.00000000, 0.00000000, -1.79335856, -32.20023727, -166.07186890, 0.11210000, 0.27699998, 0.01860000, 0.95400000, -0.21300001, -0.16200000, -0.11900000, 0.00000000, 0.00000000, 0.00000000, 0.00000000
1, 1.2200, 122, -0.34357283, 0.21236296, -0.70982611, 75.44049072, -55.91640091, 39.73203659, 0.00000000, 0.00000000, 0.00000000, -1.30061460, -32.75027847, -165.58485413, 0.11710000, 0.28099999, 0.02450000, 0.95209998, -0.19300000, -0.19000001, -0.13200000, 0.00000000, 0.00000000, 0.00000000, 0.00000000
3, 1.2300, 123, 0.96242476, 0.01735642, -0.27181911, -0.00000009, 0.00000004, -0.00000006, 0.00000000, 0.00000000, 0.00000000, -3.70130849, 74.15795135, 3.98205805, 0.79619998, 0.04660000, -0.60130000, -0.04710000, 0.00000000, 0.00000000, 0.00000000, 0.00000000, 0.00000000, 0.00000000, 0.00000000
2, 1.2299, 123, -0.18870765, -0.93210471, -0.08196957, 47.41844559, 69.73486328, 80.47901154, 0.00000000, 0.00000000, 0.00000000, 75.24657440, -4.16540480, -65.62087250, 0.67719996, -0.49710000, 0.35470000, 0.41020000, 0.12000000, -0.03100000, -0.17400001, 0.00000000, 0.00000000, 0.00000000, 0.00000000
3, 1.2400, 124, 0.96242476, 0.01735642, -0.27181911, -0.00000009, 0.00000004, -0.00000006, 0.00000000, 0.00000000, 0.00000000, -3.70130849, 74.15795135, 3.98205805, 0.79619998, 0.04670000, -0.60130000, -0.04710000, 0.00100000, 0.00000000, 0.00000000, 0.00000000, 0.00000000, 0.00000000, 0.00000000
2, 1.2399, 124, -0.21397315, -0.96516389, -0.06164600, 42.25619888, 66.20500946, 84.62112427, 0.00000000, 0.00000000, 0.00000000, 75.60180664, -4.81857681, -64.76143646, 0.68039995, -0.49929997, 0.35599998, 0.40099999, 0.13500001, 0.00000000, -0.18700001, 0.00000000, 0.00000000, 0.00000000, 0.00000000
1, 1.2300, 123, -0.47264940, 0.20168519, -0.76923341, 74.61157227, -58.87503815, 37.87172699, 0.00000000, 0.00000000, 0.00000000, -0.80787075, -33.32896423, -165.12075806, 0.12199999, 0.28520000, 0.03040000, 0.95010000, -0.07300001, -0.18700001, -0.06700000, 0.00000000, 0.00000000, 0.00000000, 0.00000000
1, 1.2400, 124, -0.70260435, 0.15839504, -0.89786750, 71.14487457, -45.16564178, 38.02986145, 0.00000000, 0.00000000, 0.00000000, -0.34950438, -33.78160095, -164.65667725, 0.12680000, 0.28830001, 0.03580000, 0.94839996, 0.14900000, -0.15100001, 0.06500001, 0.00000000, 0.00000000, 0.00000000, 0.00000000
3, 1.2500, 125, 0.96242476, 0.01735642, -0.27181911, -0.00000009, 0.00000004, -0.00000006, 0.00000000, 0.00000000, 0.00000000, -3.69557881, 74.15795135, 3.98778772, 0.79619998, 0.04670000, -0.60130000, -0.04710000, -0.00100000, 0.00000000, 0.00100000, 0.00000000, 0.00000000, 0.00000000, 0.00000000
2, 1.2499, 125, -0.23491968, -0.99202818, -0.06126273, 34.31027985, 63.21035385, 87.34600067, 0.00000000, 0.00000000, 0.00000000, 75.87682343, -5.51185560, -63.93065262, 0.68390000, -0.50089997, 0.35729998, 0.39190000, 0.14300001, 0.02700000, -0.18200001, 0.00000000, 0.00000000, 0.00000000, 0.00000000
3, 1.2600, 126, 0.96242476, 0.01735642, -0.27181911, -0.00000009, 0.00000004, -0.00000006, 0.00000000, 0.00000000, 0.00000000, -3.69557881, 74.15795135, 3.98778772, 0.79619998, 0.04670000, -0.60130000, -0.04720000, -0.00100000, 0.00000000, 0.00000000, 0.00000000, 0.00000000, 0.00000000, 0.00000000
2, 1.2599, 126, -0.23965757, -1.01875186, -0.07668406, 28.45231438, 62.01295853, 87.76273346, 0.00000000, 0.00000000, 0.00000000, 76.07735443, -6.21086454, -63.11131668, 0.68759996, -0.50189996, 0.35839999, 0.38310000, 0.13600001, 0.05400000, -0.16300000, 0.00000000, 0.00000000, 0.00000000, 0.00000000
1, 1.2500, 125, -0.83699119, 0.12294659, -0.99840087, 67.77729797, -15.77080154, 36.33626938, 0.00000000, 0.00000000, 0.00000000, 0.07448454, -33.93630219, -164.21548462, 0.13140000, 0.28900000, 0.04070000, 0.94729996, 0.27900001, -0.12200001, 0.16800001, 0.00000000, 0.00000000, 0.00000000, 0.00000000
1, 1.2600, 126, -0.84641248, 0.13144906, -1.09906387, 62.09926987, 17.83804131, 35.59663773, 0.00000000, 0.00000000, 0.00000000, 0.45836636, -33.75868225, -163.78576660, 0.13599999, 0.28689998, 0.04470000, 0.94709998, 0.29000002, -0.13600001, 0.26900002, 0.00000000, 0.00000000, 0.00000000, 0.00000000
3, 1.2700, 127, 0.96242476, 0.01735642, -0.27181911, -0.00000009, 0.00000004, -0.00000006, 0.00000000, 0.00000000, 0.00000000, -3.69557881, 74.16368103, 3.98778772, 0.79609996, 0.04670000, -0.60130000, -0.04710000, -0.00100000, 0.00000000, 0.00000000, 0.00000000, 0.00000000, 0.00000000, 0.00000000
2, 1.2699, 127, -0.27106729, -1.04923594, -0.10661729, 23.93325615, 61.71920776, 88.55187988, 0.00000000, 0.00000000, 0.00000000, 76.22060394, -6.92706203, -62.29198837, 0.69139999, -0.50260001, 0.35929999, 0.37430000, 0.15500000, 0.08500000, -0.13000001, 0.00000000, 0.00000000, 0.00000000, 0.00000000
3, 1.2800, 128, 0.96242476, 0.01735642, -0.27181911, -0.00000009, 0.00000004, -0.00000006, 0.00000000, 0.00000000, 0.00000000, -3.70130849, 74.16368103, 3.98205805, 0.79609996, 0.04670000, -0.60130000, -0.04710000, -0.00100000, 0.00000000, 0.00000000, 0.00000000, 0.00000000, 0.00000000, 0.00000000
2, 1.2799, 128, -0.25892150, -1.10824049, -0.17933956, 22.74511528, 52.15200043, 93.05261993, 0.00000000, 0.00000000, 0.00000000, 76.35811615, -7.70628500, -61.55860519, 0.69499999, -0.50279999, 0.36100000, 0.36559999, 0.13000001, 0.14500001, -0.05500000, 0.00000000, 0.00000000, 0.00000000, 0.00000000
1, 1.2700, 127, -0.73984373, 0.17259671, -1.13729477, 56.59608459, 41.55169296, 35.23444366, 0.00000000, 0.00000000, 0.00000000, 0.78495246, -33.34615326, -163.35604858, 0.14049999, 0.28290001, 0.04800000, 0.94749999, 0.18800001, -0.18200001, 0.30400002, 0.00000000, 0.00000000, 0.00000000, 0.00000000
1, 1.2800, 128, -0.64592105, 0.21254104, -1.13483810, 51.95788956, 47.88318253, 35.12430573, 0.00000000, 0.00000000, 0.00000000, 1.07143140, -32.87632751, -162.92633057, 0.14489999, 0.27849999, 0.05080000, 0.94799995, 0.10000000, -0.22600001, 0.29700002, 0.00000000, 0.00000000, 0.00000000, 0.00000000
3, 1.2900, 129, 0.96242476, 0.01735642, -0.27181911, -0.00000009, 0.00000004, -0.00000006, 0.00000000, 0.00000000, 0.00000000, -3.70130849, 74.16368103, 3.98205805, 0.79609996, 0.04670000, -0.60130000, -0.04710000, 0.00000000, 0.00000000, 0.00000000, 0.00000000, 0.00000000, 0.00000000, 0.00000000
2, 1.2899, 129, -0.42865330, -1.14260197, -0.10207327, 26.55194092, 47.89193726, 96.23671722, 0.00000000, 0.00000000, 0.00000000, 76.52426910, -8.53134441, -60.85959625, 0.69839996, -0.50279999, 0.36309999, 0.35679999, 0.28500003, 0.18000001, -0.12900001, 0.00000000, 0.00000000, 0.00000000, 0.00000000
3, 1.3000, 130, 0.96242476, 0.01735642, -0.27181911, -0.00000009, 0.00000004, -0.00000006, 0.00000000, 0.00000000, 0.00000000, -3.70130849, 74.16368103, 3.98205805, 0.79609996, 0.04670000, -0.60130000, -0.04710000, 0.00000000, 0.00000000, 0.00000000, 0.00000000, 0.00000000, 0.00000000, 0.00000000
2, 1.2999, 130, -0.47079378, -1.18685150, -0.14637718, 24.43096542, 45.93980408, 93.77644348, 0.00000000, 0.00000000, 0.00000000, 76.66750336, -9.33921528, -60.18923187, 0.70169997, -0.50279999, 0.36519998, 0.34829998, 0.31300002, 0.22600001, -0.08100000, 0.00000000, 0.00000000, 0.00000000, 0.00000000
1, 1.2900, 129, -0.59390730, 0.24352527, -1.13793766, 45.17103958, 38.51343918, 37.75451660, 0.00000000, 0.00000000, 0.00000000, 1.27769625, -32.49817657, -162.46795654, 0.14929999, 0.27489999, 0.05320000, 0.94830000, 0.05500000, -0.26100001, 0.29600000, 0.00000000, 0.00000000, 0.00000000, 0.00000000
1, 1.3000, 130, -0.62179571, 0.24156672, -1.14525914, 39.15715790, 21.28875542, 42.90384674, 0.00000000, 0.00000000, 0.00000000, 1.39228785, -32.29191208, -161.95803833, 0.15390000, 0.27280000, 0.05510000, 0.94799995, 0.08700000, -0.26200002, 0.30000001, 0.00000000, 0.00000000, 0.00000000, 0.00000000
3, 1.3100, 131, 0.96242476, 0.01735642, -0.27181911, -0.00000009, 0.00000004, -0.00000006, 0.00000000, 0.00000000, 0.00000000, -3.70130849, 74.15795135, 3.98205805, 0.79609996, 0.04670000, -0.60130000, -0.04710000, 0.00000000, 0.00000000, 0.00000000, 0.00000000, 0.00000000, 0.00000000, 0.00000000
2, 1.3099, 131, -0.47279662, -1.14998734, -0.14500409, 18.24376678, 36.51147842, 93.08957672, 0.00000000, 0.00000000, 0.00000000, 76.75344849, -10.15854454, -59.61054993, 0.70480001, -0.50199997, 0.36759999, 0.34039998, 0.30100003, 0.19100001, -0.08000001, 0.00000000, 0.00000000, 0.00000000, 0.00000000
3, 1.3200, 132, 0.96142322, 0.01734748, -0.27182791, -0.00000009, 0.00000004, -0.00000006, 0.00000000, 0.00000000, 0.00000000, -3.70703816, 74.15795135, 3.97632837, 0.79619998, 0.04670000, -0.60130000, -0.04710000, 0.00000000, 0.00000000, 0.00000000, 0.00000000, 0.00000000, 0.00000000, 0.00000000
