SensorId, TimeStamp (s), FrameNumber, AccX (g), AccY (g), AccZ (g), GyroX (deg/s), GyroY (deg/s), GyroZ (deg/s), MagX (uT), MagY (uT), MagZ (uT), EulerX (deg), EulerY (deg), EulerZ (deg), QuatW, QuatX, QuatY, QuatZ, LinAccX (g), LinAccY (g), LinAccZ (g), Pressure (kPa), Altitude (m), Temperature (degC), HeaveMotion (m)
2, 0.0000, 0, -0.51679212, -0.70550179, -0.48816639, -0.84388900, 4.01873970, 1.33943713, 0.00000000, 0.00000000, 0.00000000, 54.70602798, -30.00580978, -87.11252594, -0.70359999, 0.16309999, -0.47239998, -0.50489998, 0.01600000, -0.00100000, -0.01100000, 0.00000000, 0.00000000, 0.00000000, 0.00000000
2, 0.0100, 1, -0.50166112, -0.69545007, -0.49886131, -1.19615579, 4.70066404, 1.39677608, 0.00000000, 0.00000000, 0.00000000, 54.66592026, -29.98862267, -87.06096649, -0.70389998, 0.16319999, -0.47209999, -0.50479996, 0.00100000, -0.01000000, 0.00000000, 0.00000000, 0.00000000, 0.00000000, 0.00000000
1, -0.0000, 0, -0.28410149, -0.51861328, -0.79119134, -3.10079193, 0.78219646, 0.75995147, 0.00000000, 0.00000000, 0.00000000, 33.48366547, -17.07987785, -27.93170166, -0.92929995, 0.24210000, -0.20680000, -0.18699999, -0.00900000, -0.00800000, -0.00500000, 0.00000000, 0.00000000, 0.00000000, 0.00000000
3, -0.0000, 0, 0.96275866, -0.02144765, -0.26914936, -0.00000009, 0.00000004, -0.00000006, 0.00000000, 0.00000000, 0.00000000, 4.69825506, 74.30119324, -2.40642357, 0.79560000, -0.04530000, -0.60259998, 0.04150000, 0.00000000, 0.00000000, 0.00000000, 0.00000000, 0.00000000, 0.00000000, 0.00000000
2, 0.0200, 2, -0.49961784, -0.69243175, -0.50180775, -1.25302839, 3.27969813, 1.32728660, 0.00000000, 0.00000000, 0.00000000, 54.63154221, -29.98289108, -87.01512909, -0.70409995, 0.16319999, -0.47180000, -0.50470001, 0.00000000, -0.01300000, 0.00000000, 0.00000000, 0.00000000, 0.00000000, 0.00000000
3, 0.0100, 1, 0.96275866, -0.02144765, -0.26914936, -0.00000009, 0.00000004, -0.00000006, 0.00000000, 0.00000000, 0.00000000, 4.69825506, 74.30119324, -2.40642357, 0.79560000, -0.04530000, -0.60259998, 0.04150000, 0.00000000, 0.00000000, 0.00000000, 0.00000000, 0.00000000, 0.00000000, 0.00000000
1, 0.0100, 1, -0.30013067, -0.51162195, -0.79032427, -3.26720428, 0.84482306, 0.12527783, 0.00000000, 0.00000000, 0.00000000, 33.44928360, -17.07414627, -27.92597198, -0.92929995, 0.24180000, -0.20660000, -0.18699999, 0.00600000, -0.01500000, -0.00600000, 0.00000000, 0.00000000, 0.00000000, 0.00000000
2, 0.0300, 3, -0.50069833, -0.69746822, -0.49686062, -1.54392517, 1.97267842, 1.25506902, 0.00000000, 0.00000000, 0.00000000, 54.60289383, -29.98289108, -86.99221039, -0.70429999, 0.16309999, -0.47169998, -0.50470001, 0.00100000, -0.00700000, -0.00300000, 0.00000000, 0.00000000, 0.00000000, 0.00000000
1, 0.0200, 2, -0.31816390, -0.52062619, -0.78762740, -3.26835227, 0.90145093, 0.18290253, 0.00000000, 0.00000000, 0.00000000, 33.41490936, -17.07987785, -27.90878296, -0.92939997, 0.24159999, -0.20660000, -0.18689999, 0.02400000, -0.00500000, -0.00900000, 0.00000000, 0.00000000, 0.00000000, 0.00000000
3, 0.0200, 2, 0.96275866, -0.02144765, -0.26914936, -0.00000009, 0.00000004, -0.00000006, 0.00000000, 0.00000000, 0.00000000, 4.69825506, 74.30119324, -2.41215301, 0.79560000, -0.04530000, -0.60249996, 0.04150000, 0.00000000, 0.00000000, 0.00100000, 0.00000000, 0.00000000, 0.00000000, 0.00000000
2, 0.0400, 4, -0.50390512, -0.70657599, -0.48396090, -1.72315538, 1.28682220, 1.47661757, 0.00000000, 0.00000000, 0.00000000, 54.57424927, -29.98862267, -86.97502136, -0.70440000, 0.16300000, -0.47160000, -0.50470001, 0.00400000, 0.00100000, -0.01700000, 0.00000000, 0.00000000, 0.00000000, 0.00000000
3, 0.0300, 3, 0.96275866, -0.02144765, -0.26914936, -0.00000009, 0.00000004, -0.00000006, 0.00000000, 0.00000000, 0.00000000, 4.69252586, 74.30119324, -2.41215301, 0.79560000, -0.04530000, -0.60249996, 0.04150000, 0.00000000, 0.00000000, 0.00000000, 0.00000000, 0.00000000, 0.00000000, 0.00000000
3, 0.0400, 4, 0.96275866, -0.02144765, -0.26914936, -0.00000009, 0.00000004, -0.00000006, 0.00000000, 0.00000000, 0.00000000, 4.68679619, 74.29546356, -2.41788268, 0.79560000, -0.04530000, -0.60249996, 0.04150000, 0.00000000, -0.00100000, 0.00000000, 0.00000000, 0.00000000, 0.00000000, 0.00000000
1, 0.0300, 3, -0.30833161, -0.53267747, -0.77566010, -3.22544980, 2.78631520, 0.41874668, 0.00000000, 0.00000000, 0.00000000, 33.38053131, -17.06268883, -27.88586617, -0.92960000, 0.24139999, -0.20629999, -0.18689999, 0.01500000, 0.00700000, -0.02100000, 0.00000000, 0.00000000, 0.00000000, 0.00000000
2, 0.0500, 5, -0.50003570, -0.70666504, -0.47687480, -1.84339440, 1.79617703, 1.65105271, 0.00000000, 0.00000000, 0.00000000, 54.54559708, -29.99434853, -86.94637299, -0.70459998, 0.16290000, -0.47139999, -0.50459999, 0.00000000, 0.00100000, -0.02500000, 0.00000000, 0.00000000, 0.00000000, 0.00000000
2, 0.0600, 6, -0.50202948, -0.71164250, -0.47696018, -1.72906268, 3.27309489, 1.77930248, 0.00000000, 0.00000000, 0.00000000, 54.51122284, -29.98862267, -86.91199493, -0.70480001, 0.16290000, -0.47119999, -0.50449997, 0.00200000, 0.00600000, -0.02400000, 0.00000000, 0.00000000, 0.00000000, 0.00000000
2, 0.0700, 7, -0.50606489, -0.71066993, -0.47400159, -1.79228246, 4.86216211, 2.02054477, 0.00000000, 0.00000000, 0.00000000, 54.47111511, -29.98289108, -86.85470581, -0.70510000, 0.16290000, -0.47090000, -0.50440001, 0.00600000, 0.00600000, -0.02800000, 0.00000000, 0.00000000, 0.00000000, 0.00000000
1, 0.0400, 4, -0.28537381, -0.54369146, -0.77149850, -3.92885661, 5.25025654, -0.38982272, 0.00000000, 0.00000000, 0.00000000, 33.33469391, -17.01685143, -27.85721588, -0.92969996, 0.24110000, -0.20580000, -0.18689999, -0.00600000, 0.01800000, -0.02600000, 0.00000000, 0.00000000, 0.00000000, 0.00000000
1, 0.0500, 5, -0.27817693, -0.54762864, -0.78340298, -4.51346493, 5.64850140, -0.39757469, 0.00000000, 0.00000000, 0.00000000, 33.28313065, -16.96528625, -27.83429909, -0.92989999, 0.24089999, -0.20529999, -0.18689999, -0.01300000, 0.02200000, -0.01500000, 0.00000000, 0.00000000, 0.00000000, 0.00000000
1, 0.0600, 6, -0.27505744, -0.54359251, -0.79130119, -4.32793999, 3.47414875, -0.17089015, 0.00000000, 0.00000000, 0.00000000, 33.24301910, -16.93090820, -27.81711006, -0.92999995, 0.24069999, -0.20490000, -0.18689999, -0.01500000, 0.01900000, -0.00800000, 0.00000000, 0.00000000, 0.00000000, 0.00000000
1, 0.0700, 7, -0.29224449, -0.53665125, -0.78048539, -5.01084900, -0.02103809, 0.32636553, 0.00000000, 0.00000000, 0.00000000, 33.19145584, -16.93090820, -27.81711006, -0.93009996, 0.24030000, -0.20490000, -0.18699999, 0.00100000, 0.01300000, -0.01900000, 0.00000000, 0.00000000, 0.00000000, 0.00000000
3, 0.0500, 5, 0.96275866, -0.02144765, -0.26914936, -0.00000009, 0.00000004, -0.00000006, 0.00000000, 0.00000000, 0.00000000, 4.68679619, 74.29546356, -2.41788268, 0.79560000, -0.04530000, -0.60249996, 0.04150000, 0.00000000, 0.00000000, 0.00000000, 0.00000000, 0.00000000, 0.00000000, 0.00000000
2, 0.0800, 8, -0.48390877, -0.69960535, -0.48758662, -2.54727435, 6.34679985, 1.67595136, 0.00000000, 0.00000000, 0.00000000, 54.40808868, -29.95997238, -86.78594208, -0.70539999, 0.16290000, -0.47039998, -0.50430000, -0.01500000, -0.00400000, -0.01500000, 0.00000000, 0.00000000, 0.00000000, 0.00000000
3, 0.0600, 6, 0.96275866, -0.02144765, -0.26914936, -0.00000009, 0.00000004, -0.00000006, 0.00000000, 0.00000000, 0.00000000, 4.68679619, 74.30119324, -2.41788268, 0.79560000, -0.04530000, -0.60249996, 0.04150000, -0.00100000, 0.00000000, -0.00100000, 0.00000000, 0.00000000, 0.00000000, 0.00000000
1, 0.0800, 8, -0.31237197, -0.51869428, -0.77459019, -5.31431723, -0.03083531, 1.24148393, 0.00000000, 0.00000000, 0.00000000, 33.13988876, -16.94236755, -27.80565071, -0.93030000, 0.23979999, -0.20479999, -0.18699999, 0.02100000, -0.00300000, -0.02500000, 0.00000000, 0.00000000, 0.00000000, 0.00000000
2, 0.0900, 9, -0.47580302, -0.69156301, -0.49540222, -2.82564616, 6.47303009, 0.86861265, 0.00000000, 0.00000000, 0.00000000, 54.34506607, -29.92559624, -86.71719360, -0.70580000, 0.16300000, -0.46989998, -0.50430000, -0.02300000, -0.01200000, -0.00800000, 0.00000000, 0.00000000, 0.00000000, 0.00000000
1, 0.0900, 9, -0.31020883, -0.52164161, -0.78455305, -5.51973391, 4.25469255, 1.48025918, 0.00000000, 0.00000000, 0.00000000, 33.07113647, -16.91945076, -27.76554298, -0.93049997, 0.23940000, -0.20439999, -0.18679999, 0.01900000, 0.00000000, -0.01600000, 0.00000000, 0.00000000, 0.00000000, 0.00000000
3, 0.0700, 7, 0.96275866, -0.02144765, -0.26914936, -0.00000009, 0.00000004, -0.00000006, 0.00000000, 0.00000000, 0.00000000, 4.69252586, 74.30119324, -2.41788268, 0.79560000, -0.04530000, -0.60249996, 0.04150000, 0.00000000, 0.00000000, 0.00000000, 0.00000000, 0.00000000, 0.00000000, 0.00000000
3, 0.0800, 8, 0.96275866, -0.02144765, -0.26914936, -0.00000009, 0.00000004, -0.00000006, 0.00000000, 0.00000000, 0.00000000, 4.69825506, 74.30119324, -2.41215301, 0.79560000, -0.04530000, -0.60259998, 0.04150000, 0.00000000, 0.00000000, 0.00000000, 0.00000000, 0.00000000, 0.00000000, 0.00000000
1, 0.1000, 10, -0.28794789, -0.53455824, -0.79934579, -6.23294163, 7.63072681, 0.96150607, 0.00000000, 0.00000000, 0.00000000, 32.99664688, -16.85642433, -27.71397591, -0.93079996, 0.23899999, -0.20369999, -0.18670000, -0.00100000, 0.01300000, -0.00200000, 0.00000000, 0.00000000, 0.00000000, 0.00000000
2, 0.1000, 10, -0.48188162, -0.69360876, -0.48949721, -3.28352571, 4.20626402, 0.32681820, 0.00000000, 0.00000000, 0.00000000, 54.29349518, -29.90267754, -86.67708588, -0.70599997, 0.16300000, -0.46949998, -0.50430000, -0.01600000, -0.01000000, -0.01500000, 0.00000000, 0.00000000, 0.00000000, 0.00000000
1, 0.1100, 11, -0.27372929, -0.53249186, -0.81310737, -6.80812645, 8.26538086, 0.14977826, 0.00000000, 0.00000000, 0.00000000, 32.91643524, -16.78766823, -27.66814041, -0.93109995, 0.23860000, -0.20289999, -0.18660000, -0.01400000, 0.01200000, 0.01000000, 0.00000000, 0.00000000, 0.00000000, 0.00000000
2, 0.1100, 11, -0.49804065, -0.69471198, -0.47671360, -4.04222727, 2.55837917, 0.24467400, 0.00000000, 0.00000000, 0.00000000, 54.24193192, -29.89121628, -86.64843750, -0.70620000, 0.16280000, -0.46919999, -0.50440001, 0.00000000, -0.00800000, -0.02800000, 0.00000000, 0.00000000, 0.00000000, 0.00000000
3, 0.0900, 9, 0.96275866, -0.02144765, -0.26914936, -0.00000009, 0.00000004, -0.00000006, 0.00000000, 0.00000000, 0.00000000, 4.69825506, 74.30119324, -2.40642357, 0.79560000, -0.04530000, -0.60259998, 0.04150000, 0.00000000, 0.00000000, 0.00000000, 0.00000000, 0.00000000, 0.00000000, 0.00000000
3, 0.1000, 10, 0.96275866, -0.02144765, -0.26914936, -0.00000009, 0.00000004, -0.00000006, 0.00000000, 0.00000000, 0.00000000, 4.70398474, 74.30119324, -2.40642357, 0.79560000, -0.04530000, -0.60259998, 0.04150000, 0.00000000, 0.00000000, 0.00000000, 0.00000000, 0.00000000, 0.00000000, 0.00000000
1, 0.1200, 12, -0.28970912, -0.50849044, -0.81707329, -7.24996185, 6.15535545, -0.61009908, 0.00000000, 0.00000000, 0.00000000, 32.83049393, -16.73037338, -27.63376236, -0.93129998, 0.23809999, -0.20230000, -0.18670000, 0.00100000, -0.01000000, 0.01300000, 0.00000000, 0.00000000, 0.00000000, 0.00000000
2, 0.1200, 12, -0.52117360, -0.68981874, -0.46397418, -4.92709875, 3.46299839, 0.64009660, 0.00000000, 0.00000000, 0.00000000, 54.17317581, -29.87975883, -86.61405182, -0.70639998, 0.16270000, -0.46879998, -0.50459999, 0.02300000, -0.01200000, -0.04200000, 0.00000000, 0.00000000, 0.00000000, 0.00000000
1, 0.1300, 13, -0.29773206, -0.48650378, -0.81797361, -7.63289547, 3.81626916, -1.31223822, 0.00000000, 0.00000000, 0.00000000, 32.74454880, -16.69599533, -27.62230301, -0.93149996, 0.23750000, -0.20179999, -0.18679999, 0.01100000, -0.03100000, 0.01300000, 0.00000000, 0.00000000, 0.00000000, 0.00000000
3, 0.1100, 11, 0.96275866, -0.02144765, -0.26914936, -0.00000009, 0.00000004, -0.00000006, 0.00000000, 0.00000000, 0.00000000, 4.70398474, 74.30119324, -2.40642357, 0.79560000, -0.04530000, -0.60249996, 0.04150000, 0.00000000, 0.00000000, 0.00000000, 0.00000000, 0.00000000, 0.00000000, 0.00000000
2, 0.1300, 13, -0.53020757, -0.68784845, -0.46007937, -6.05035448, 5.21744823, 1.26823330, 0.00000000, 0.00000000, 0.00000000, 54.08723450, -29.86256981, -86.56249237, -0.70679998, 0.16239999, -0.46820000, -0.50459999, 0.03200000, -0.01300000, -0.04800000, 0.00000000, 0.00000000, 0.00000000, 0.00000000
3, 0.1200, 12, 0.96275866, -0.02144765, -0.26914936, -0.00000009, 0.00000004, -0.00000006, 0.00000000, 0.00000000, 0.00000000, 4.69825506, 74.30119324, -2.40642357, 0.79560000, -0.04530000, -0.60259998, 0.04150000, 0.00000000, 0.00000000, 0.00000000, 0.00000000, 0.00000000, 0.00000000, 0.00000000
1, 0.1400, 14, -0.28273597, -0.48350883, -0.81776989, -7.94187784, -0.23464878, -2.36293554, 0.00000000, 0.00000000, 0.00000000, 32.67006302, -16.68453598, -27.64522171, -0.93169999, 0.23689999, -0.20170000, -0.18719999, -0.00300000, -0.03300000, 0.01200000, 0.00000000, 0.00000000, 0.00000000, 0.00000000
1, 0.1500, 15, -0.26206076, -0.50460917, -0.79479355, -8.06008530, -7.03059578, -3.30342889, 0.00000000, 0.00000000, 0.00000000, 32.60703659, -16.72464180, -27.71397591, -0.93169999, 0.23619999, -0.20199999, -0.18769999, -0.02500000, -0.01100000, -0.01100000, 0.00000000, 0.00000000, 0.00000000, 0.00000000
2, 0.1400, 14, -0.52516365, -0.71372473, -0.46429661, -6.67028284, 6.66698217, 3.22265720, 0.00000000, 0.00000000, 0.00000000, 53.98410416, -29.85111046, -86.48227692, -0.70719999, 0.16219999, -0.46759999, -0.50459999, 0.02700000, 0.01200000, -0.04400000, 0.00000000, 0.00000000, 0.00000000, 0.00000000
3, 0.1300, 13, 0.96275866, -0.02144765, -0.26914936, -0.00000009, 0.00000004, -0.00000006, 0.00000000, 0.00000000, 0.00000000, 4.69825506, 74.30119324, -2.41215301, 0.79560000, -0.04530000, -0.60259998, 0.04150000, 0.00000000, 0.00000000, 0.00000000, 0.00000000, 0.00000000, 0.00000000, 0.00000000
2, 0.1500, 15, -0.51016825, -0.71871090, -0.46712697, -7.57211208, 7.04486322, 4.58998346, 0.00000000, 0.00000000, 0.00000000, 53.86377716, -29.85111046, -86.39060211, -0.70779997, 0.16180000, -0.46699998, -0.50459999, 0.01300000, 0.01700000, -0.04300000, 0.00000000, 0.00000000, 0.00000000, 0.00000000
3, 0.1400, 14, 0.96275866, -0.02144765, -0.26914936, -0.00000009, 0.00000004, -0.00000006, 0.00000000, 0.00000000, 0.00000000, 4.69825506, 74.30119324, -2.41215301, 0.79560000, -0.04530000, -0.60259998, 0.04150000, 0.00000000, 0.00000000, 0.00000000, 0.00000000, 0.00000000, 0.00000000, 0.00000000
2, 0.1600, 16, -0.50613004, -0.70373952, -0.46991220, -7.86724663, 6.18935204, 4.75097322, 0.00000000, 0.00000000, 0.00000000, 53.74345779, -29.85684013, -86.30466461, -0.70840001, 0.16139999, -0.46629998, -0.50449997, 0.00800000, 0.00400000, -0.04200000, 0.00000000, 0.00000000, 0.00000000, 0.00000000
3, 0.1500, 15, 0.96275866, -0.02144765, -0.26914936, -0.00000009, 0.00000004, -0.00000006, 0.00000000, 0.00000000, 0.00000000, 4.69252586, 74.30119324, -2.41215301, 0.79560000, -0.04530000, -0.60259998, 0.04150000, -0.00100000, 0.00000000, 0.00000000, 0.00000000, 0.00000000, 0.00000000, 0.00000000
2, 0.1700, 17, -0.50802356, -0.70565981, -0.47598538, -7.58518362, 4.53010559, 5.37401867, 0.00000000, 0.00000000, 0.00000000, 53.63459778, -29.87402916, -86.22444916, -0.70889997, 0.16090000, -0.46579999, -0.50440001, 0.01000000, 0.00700000, -0.03600000, 0.00000000, 0.00000000, 0.00000000, 0.00000000
3, 0.1600, 16, 0.96275866, -0.02144765, -0.26914936, -0.00000009, 0.00000004, -0.00000006, 0.00000000, 0.00000000, 0.00000000, 4.68679619, 74.30119324, -2.41788268, 0.79560000, -0.04530000, -0.60259998, 0.04150000, 0.00000000, 0.00000000, 0.00000000, 0.00000000, 0.00000000, 0.00000000, 0.00000000
1, 0.1600, 16, -0.29641488, -0.53870422, -0.76959354, -8.07916451, -10.90898228, -4.34925032, 0.00000000, 0.00000000, 0.00000000, 32.55547333, -16.79339790, -27.81138039, -0.93159997, 0.23539999, -0.20269999, -0.18850000, 0.00800000, 0.02300000, -0.03600000, 0.00000000, 0.00000000, 0.00000000, 0.00000000
1, 0.1700, 17, -0.33156574, -0.57173461, -0.75734538, -7.97176123, -7.69838333, -5.20092916, 0.00000000, 0.00000000, 0.00000000, 32.50963593, -16.83350563, -27.90305328, -0.93149996, 0.23480000, -0.20310000, -0.18910000, 0.04200000, 0.05700000, -0.04900000, 0.00000000, 0.00000000, 0.00000000, 0.00000000
1, 0.1800, 18, -0.33241361, -0.58668089, -0.76545566, -8.05813503, -0.30891377, -6.61873150, 0.00000000, 0.00000000, 0.00000000, 32.44660950, -16.80485725, -27.96034813, -0.93149996, 0.23429999, -0.20289999, -0.18979999, 0.04300000, 0.07300001, -0.04200000, 0.00000000, 0.00000000, 0.00000000, 0.00000000
3, 0.1700, 17, 0.96275866, -0.02144765, -0.26914936, -0.00000009, 0.00000004, -0.00000006, 0.00000000, 0.00000000, 0.00000000, 4.68679619, 74.30119324, -2.41788268, 0.79560000, -0.04530000, -0.60259998, 0.04150000, -0.00100000, 0.00100000, 0.00000000, 0.00000000, 0.00000000, 0.00000000, 0.00000000
1, 0.1900, 19, -0.30521151, -0.58362252, -0.77805841, -7.61374331, 4.67484283, -7.40287161, 0.00000000, 0.00000000, 0.00000000, 32.38358307, -16.72464180, -28.00045776, -0.93159997, 0.23390000, -0.20230000, -0.19049999, 0.01700000, 0.07000000, -0.02900000, 0.00000000, 0.00000000, 0.00000000, 0.00000000
2, 0.1800, 18, -0.50487292, -0.73146337, -0.48625413, -9.22393131, 1.97031999, 5.44336033, 0.00000000, 0.00000000, 0.00000000, 53.51427460, -29.90267754, -86.17288208, -0.70929998, 0.16020000, -0.46539998, -0.50440001, 0.00700000, 0.03400000, -0.02800000, 0.00000000, 0.00000000, 0.00000000, 0.00000000
3, 0.1800, 18, 0.96275866, -0.02144765, -0.26914936, -0.00000009, 0.00000004, -0.00000006, 0.00000000, 0.00000000, 0.00000000, 4.69252586, 74.30119324, -2.41215301, 0.79560000, -0.04530000, -0.60259998, 0.04150000, 0.00000000, 0.00100000, 0.00000000, 0.00000000, 0.00000000, 0.00000000, 0.00000000
2, 0.1900, 19, -0.50896126, -0.74846172, -0.48048046, -9.73636055, -0.06539961, 4.67281914, 0.00000000, 0.00000000, 0.00000000, 53.40541458, -29.94278526, -86.14423370, -0.70969999, 0.15940000, -0.46499997, -0.50449997, 0.01000000, 0.05300000, -0.03500000, 0.00000000, 0.00000000, 0.00000000, 0.00000000
2, 0.2000, 20, -0.51794821, -0.76240146, -0.47976911, -8.43315887, -0.45061305, 3.77109098, 0.00000000, 0.00000000, 0.00000000, 53.30801010, -29.97716141, -86.12130737, -0.70989996, 0.15869999, -0.46469998, -0.50459999, 0.01800000, 0.06700000, -0.03600000, 0.00000000, 0.00000000, 0.00000000, 0.00000000
1, 0.2000, 20, -0.27807400, -0.57058811, -0.78758639, -6.73818254, 6.34534216, -8.36217117, 0.00000000, 0.00000000, 0.00000000, 32.33201981, -16.62724113, -28.04056358, -0.93169999, 0.23359999, -0.20150000, -0.19110000, -0.00800000, 0.05800000, -0.02000000, 0.00000000, 0.00000000, 0.00000000, 0.00000000
3, 0.1900, 19, 0.96276802, -0.02244201, -0.26915801, -0.00000009, 0.00000004, -0.00000006, 0.00000000, 0.00000000, 0.00000000, 4.69252586, 74.30119324, -2.41215301, 0.79560000, -0.04530000, -0.60259998, 0.04150000, 0.00000000, 0.00000000, 0.00000000, 0.00000000, 0.00000000, 0.00000000, 0.00000000
3, 0.2000, 20, 0.96275866, -0.02144765, -0.26914936, -0.00000009, 0.00000004, -0.00000006, 0.00000000, 0.00000000, 0.00000000, 4.68679619, 74.30691528, -2.41788268, 0.79560000, -0.04530000, -0.60259998, 0.04150000, 0.00000000, 0.00000000, 0.00000000, 0.00000000, 0.00000000, 0.00000000, 0.00000000
1, 0.2100, 21, -0.27609116, -0.56059736, -0.78747606, -5.83009529, 4.19043446, -9.90648460, 0.00000000, 0.00000000, 0.00000000, 32.29763794, -16.53556824, -28.10358810, -0.93179995, 0.23339999, -0.20080000, -0.19200000, -0.00800000, 0.04800000, -0.02200000, 0.00000000, 0.00000000, 0.00000000, 0.00000000
1, 0.2200, 22, -0.26888376, -0.56153226, -0.80035049, -4.15733385, 0.55040455, -11.32838249, 0.00000000, 0.00000000, 0.00000000, 32.28618240, -16.47254181, -28.20099258, -0.93169999, 0.23330000, -0.20050000, -0.19299999, -0.01400000, 0.04900000, -0.01000000, 0.00000000, 0.00000000, 0.00000000, 0.00000000
2, 0.2100, 21, -0.54465485, -0.77415651, -0.49236092, -8.01160145, -0.38358989, 3.08898664, 0.00000000, 0.00000000, 0.00000000, 53.22206879, -30.00580978, -86.10412598, -0.71010000, 0.15809999, -0.46449998, -0.50479996, 0.04500000, 0.08000001, -0.02500000, 0.00000000, 0.00000000, 0.00000000, 0.00000000
2, 0.2200, 22, -0.56343615, -0.76603526, -0.50160110, -8.82326984, -0.77492058, 2.67132735, 0.00000000, 0.00000000, 0.00000000, 53.12466431, -30.02872849, -86.09266663, -0.71039999, 0.15740000, -0.46419999, -0.50500000, 0.06300000, 0.07300001, -0.01700000, 0.00000000, 0.00000000, 0.00000000, 0.00000000
3, 0.2100, 21, 0.96275866, -0.02144765, -0.26914936, -0.00000009, 0.00000004, -0.00000006, 0.00000000, 0.00000000, 0.00000000, 4.68679619, 74.30691528, -2.41788268, 0.79560000, -0.04530000, -0.60259998, 0.04150000, 0.00000000, 0.00000000, 0.00000000, 0.00000000, 0.00000000, 0.00000000, 0.00000000
1, 0.2300, 23, -0.20183305, -0.57852286, -0.80069977, -1.66945076, -3.37381482, -12.62374592, 0.00000000, 0.00000000, 0.00000000, 32.30910110, -16.42670441, -28.33850288, -0.93140000, 0.23339999, -0.20039999, -0.19419999, -0.08000001, 0.06600000, -0.00900000, 0.00000000, 0.00000000, 0.00000000, 0.00000000
3, 0.2200, 22, 0.96275866, -0.02144765, -0.26914936, -0.00000009, 0.00000004, -0.00000006, 0.00000000, 0.00000000, 0.00000000, 4.68679619, 74.30691528, -2.41788268, 0.79560000, -0.04530000, -0.60259998, 0.04150000, -0.00100000, 0.00000000, 0.00000000, 0.00000000, 0.00000000, 0.00000000, 0.00000000
1, 0.2400, 24, -0.14891894, -0.61754692, -0.79044884, -0.38806736, -9.01426315, -14.28709221, 0.00000000, 0.00000000, 0.00000000, 32.36066437, -16.41524696, -28.52184868, -0.93099999, 0.23349999, -0.20080000, -0.19559999, -0.13300000, 0.10500000, -0.01900000, 0.00000000, 0.00000000, 0.00000000, 0.00000000
2, 0.2300, 23, -0.55506265, -0.74685079, -0.52535170, -9.50365925, -1.49536598, 1.44909108, 0.00000000, 0.00000000, 0.00000000, 53.03298950, -30.05164719, -86.09839630, -0.71050000, 0.15670000, -0.46379998, -0.50529999, 0.05400000, 0.05500000, 0.00500000, 0.00000000, 0.00000000, 0.00000000, 0.00000000
2, 0.2400, 24, -0.53382325, -0.75366431, -0.54416424, -9.93901443, -4.42541027, -0.36103347, 0.00000000, 0.00000000, 0.00000000, 52.95850372, -30.07456207, -86.14423370, -0.71039999, 0.15590000, -0.46370000, -0.50580001, 0.03300000, 0.06300000, 0.02300000, 0.00000000, 0.00000000, 0.00000000, 0.00000000
2, 0.2500, 25, -0.50083011, -0.78356296, -0.55099827, -10.95417023, -9.91087246, -2.42996120, 0.00000000, 0.00000000, 0.00000000, 52.90121078, -30.11467361, -86.25308990, -0.71010000, 0.15490000, -0.46379998, -0.50650001, 0.00000000, 0.09400000, 0.02900000, 0.00000000, 0.00000000, 0.00000000, 0.00000000
2, 0.2600, 26, -0.44347307, -0.80723768, -0.58448428, -13.24274254, -18.45605278, -5.23184204, 0.00000000, 0.00000000, 0.00000000, 52.87256241, -30.18342590, -86.45935822, -0.70929998, 0.15339999, -0.46429998, -0.50760001, -0.05800000, 0.11800001, 0.06300000, 0.00000000, 0.00000000, 0.00000000, 0.00000000
3, 0.2300, 23, 0.96275866, -0.02144765, -0.26914936, -0.00000009, 0.00000004, -0.00000006, 0.00000000, 0.00000000, 0.00000000, 4.68679619, 74.30691528, -2.41788268, 0.79560000, -0.04530000, -0.60259998, 0.04150000, 0.00000000, 0.00000000, 0.00000000, 0.00000000, 0.00000000, 0.00000000, 0.00000000
1, 0.2500, 25, -0.17521851, -0.67361867, -0.76634061, -0.51135558, -15.87123680, -14.82544327, 0.00000000, 0.00000000, 0.00000000, 32.41796494, -16.47254181, -28.74530220, -0.93049997, 0.23339999, -0.20179999, -0.19710000, -0.10700001, 0.16000001, -0.04200000, 0.00000000, 0.00000000, 0.00000000, 0.00000000
3, 0.2400, 24, 0.96275866, -0.02144765, -0.26914936, -0.00000009, 0.00000004, -0.00000006, 0.00000000, 0.00000000, 0.00000000, 4.68679619, 74.30119324, -2.41788268, 0.79560000, -0.04530000, -0.60259998, 0.04150000, 0.00000000, 0.00000000, 0.00000000, 0.00000000, 0.00000000, 0.00000000, 0.00000000
1, 0.2600, 26, -0.22524728, -0.71992189, -0.69759566, 0.09208508, -19.18554497, -14.82553959, 0.00000000, 0.00000000, 0.00000000, 32.49244690, -16.55275536, -28.98594284, -0.92989999, 0.23339999, -0.20310000, -0.19870000, -0.05800000, 0.20600002, -0.11000001, 0.00000000, 0.00000000, 0.00000000, 0.00000000
2, 0.2700, 27, -0.38216105, -0.81699401, -0.61574942, -14.65069866, -32.11988831, -8.11778355, 0.00000000, 0.00000000, 0.00000000, 52.90121078, -30.31520653, -86.80886841, -0.70779997, 0.15140000, -0.46550000, -0.50909996, -0.12100001, 0.12900001, 0.09400000, 0.00000000, 0.00000000, 0.00000000, 0.00000000
2, 0.2800, 28, -0.30748636, -0.86106157, -0.61204612, -13.86288834, -48.82444000, -9.38559914, 0.00000000, 0.00000000, 0.00000000, 53.02725983, -30.53293037, -87.33025360, -0.70559996, 0.14880000, -0.46779999, -0.51089996, -0.19900002, 0.17300001, 0.09300000, 0.00000000, 0.00000000, 0.00000000, 0.00000000
3, 0.2500, 25, 0.96275866, -0.02144765, -0.26914936, -0.00000009, 0.00000004, -0.00000006, 0.00000000, 0.00000000, 0.00000000, 4.68679619, 74.30119324, -2.41215301, 0.79560000, -0.04530000, -0.60259998, 0.04150000, 0.00000000, 0.00000000, 0.00000000, 0.00000000, 0.00000000, 0.00000000, 0.00000000
1, 0.2700, 27, -0.23163486, -0.78802139, -0.66638196, 1.37303472, -19.98493576, -14.46344566, 0.00000000, 0.00000000, 0.00000000, 32.57839203, -16.63870049, -29.22658730, -0.92919999, 0.23349999, -0.20439999, -0.20029999, -0.05400000, 0.27300000, -0.14100000, 0.00000000, 0.00000000, 0.00000000, 0.00000000
3, 0.2600, 26, 0.96275866, -0.02144765, -0.26914936, -0.00000009, 0.00000004, -0.00000006, 0.00000000, 0.00000000, 0.00000000, 4.68679619, 74.30119324, -2.41788268, 0.79560000, -0.04530000, -0.60259998, 0.04150000, 0.00000000, 0.00000000, 0.00000000, 0.00000000, 0.00000000, 0.00000000, 0.00000000
3, 0.2700, 27, 0.96275866, -0.02144765, -0.26914936, -0.00000009, 0.00000004, -0.00000006, 0.00000000, 0.00000000, 0.00000000, 4.69252586, 74.30691528, -2.41215301, 0.79560000, -0.04530000, -0.60259998, 0.04150000, 0.00000000, 0.00000000, 0.00000000, 0.00000000, 0.00000000, 0.00000000, 0.00000000
1, 0.2800, 28, -0.15863061, -0.86900622, -0.65725386, 3.75224948, -25.78302765, -11.16695118, 0.00000000, 0.00000000, 0.00000000, 32.68725204, -16.79912758, -29.47295952, -0.92850000, 0.23349999, -0.20629999, -0.20170000, -0.12800001, 0.35200003, -0.14800000, 0.00000000, 0.00000000, 0.00000000, 0.00000000
3, 0.2800, 28, 0.96275866, -0.02144765, -0.26914936, -0.00000009, 0.00000004, -0.00000006, 0.00000000, 0.00000000, 0.00000000, 4.69252586, 74.30691528, -2.41215301, 0.79560000, -0.04530000, -0.60259998, 0.04150000, 0.00000000, 0.00000000, 0.00000000, 0.00000000, 0.00000000, 0.00000000, 0.00000000
1, 0.2900, 29, -0.08720245, -0.91818541, -0.61499053, 4.32402372, -39.57350922, -3.89626074, 0.00000000, 0.00000000, 0.00000000, 32.80757523, -17.10852432, -29.73078918, -0.92759997, 0.23330000, -0.20950000, -0.20269999, -0.20400001, 0.40100002, -0.18900001, 0.00000000, 0.00000000, 0.00000000, 0.00000000
3, 0.2900, 29, 0.96275866, -0.02144765, -0.26914936, -0.00000009, 0.00000004, -0.00000006, 0.00000000, 0.00000000, 0.00000000, 4.68679619, 74.30691528, -2.41788268, 0.79560000, -0.04530000, -0.60259998, 0.04150000, 0.00000000, 0.00000000, 0.00000000, 0.00000000, 0.00000000, 0.00000000, 0.00000000
1, 0.3000, 30, -0.16505210, -0.84146780, -0.57041353, 3.90567613, -65.51176453, 17.69657135, 0.00000000, 0.00000000, 0.00000000, 32.91643524, -17.75596809, -29.94851494, -0.92659998, 0.23210000, -0.21529999, -0.20250000, -0.13500001, 0.32400000, -0.23000000, 0.00000000, 0.00000000, 0.00000000, 0.00000000
2, 0.2900, 29, -0.22496641, -0.96003586, -0.60179019, -13.72639465, -65.99044800, -10.20768929, 0.00000000, 0.00000000, 0.00000000, 53.23925781, -30.84805870, -88.01206970, -0.70260000, 0.14540000, -0.47110000, -0.51300001, -0.28500003, 0.27200001, 0.08700000, 0.00000000, 0.00000000, 0.00000000, 0.00000000
2, 0.3000, 30, -0.16539741, -1.05797851, -0.58987552, -13.63395977, -83.82668304, -11.83975792, 0.00000000, 0.00000000, 0.00000000, 53.54865265, -31.24912643, -88.88297272, -0.69879997, 0.14129999, -0.47540000, -0.51529998, -0.35000002, 0.37000000, 0.07900000, 0.00000000, 0.00000000, 0.00000000, 0.00000000
2, 0.3100, 31, -0.12659286, -1.09398413, -0.58664703, -13.29649067, -101.20462799, -17.42709732, 0.00000000, 0.00000000, 0.00000000, 53.98410416, -31.70749474, -89.96012878, -0.69389999, 0.13669999, -0.48079997, -0.51819998, -0.39500001, 0.40600002, 0.08300000, 0.00000000, 0.00000000, 0.00000000, 0.00000000
3, 0.3000, 30, 0.96275866, -0.02144765, -0.26914936, -0.00000009, 0.00000004, -0.00000006, 0.00000000, 0.00000000, 0.00000000, 4.68106651, 74.30691528, -2.42361236, 0.79560000, -0.04530000, -0.60259998, 0.04150000, 0.00000000, 0.00000000, 0.00000000, 0.00000000, 0.00000000, 0.00000000, 0.00000000
1, 0.3100, 31, -0.29472116, -1.26247203, -0.29864058, 24.90915489, -92.00759888, -20.22838211, 0.00000000, 0.00000000, 0.00000000, 33.38626480, -18.41486931, -30.65324974, -0.92399997, 0.23289999, -0.22270000, -0.20559999, -0.01600000, 0.74200004, -0.49500003, 0.00000000, 0.00000000, 0.00000000, 0.00000000
3, 0.3100, 31, 0.96275866, -0.02144765, -0.26914936, -0.00000009, 0.00000004, -0.00000006, 0.00000000, 0.00000000, 0.00000000, 4.68106651, 74.30691528, -2.41788268, 0.79560000, -0.04530000, -0.60259998, 0.04150000, 0.00000000, 0.00000000, 0.00000000, 0.00000000, 0.00000000, 0.00000000, 0.00000000
2, 0.3200, 32, -0.10745353, -1.05072999, -0.53769588, -9.19478512, -114.53443146, -27.51869583, 0.00000000, 0.00000000, 0.00000000, 54.56851578, -32.15439987, -91.24929047, -0.68790001, 0.13210000, -0.48690000, -0.52160001, -0.42100003, 0.36200002, 0.04300000, 0.00000000, 0.00000000, 0.00000000, 0.00000000
2, 0.3300, 33, -0.02762434, -1.06018293, -0.42312089, -2.27619386, -121.30927277, -34.87331772, 0.00000000, 0.00000000, 0.00000000, 55.30190277, -32.56120300, -92.65876770, -0.68119997, 0.12789999, -0.49370000, -0.52509999, -0.50700003, 0.36900002, -0.06000000, 0.00000000, 0.00000000, 0.00000000, 0.00000000
3, 0.3200, 32, 0.96275866, -0.02144765, -0.26914936, -0.00000009, 0.00000004, -0.00000006, 0.00000000, 0.00000000, 0.00000000, 4.68679619, 74.30691528, -2.41788268, 0.79560000, -0.04530000, -0.60259998, 0.04150000, -0.00100000, 0.00000000, 0.00000000, 0.00000000, 0.00000000, 0.00000000, 0.00000000
1, 0.3200, 32, -0.19344078, -1.20410216, -0.38361007, 20.95523262, -119.01457214, -7.83210897, 0.00000000, 0.00000000, 0.00000000, 33.83890152, -19.36025047, -31.42101479, -0.92100000, 0.23259999, -0.23249999, -0.20819999, -0.13100001, 0.68000001, -0.40200001, 0.00000000, 0.00000000, 0.00000000, 0.00000000
3, 0.3300, 33, 0.96275866, -0.02144765, -0.26914936, -0.00000009, 0.00000004, -0.00000006, 0.00000000, 0.00000000, 0.00000000, 4.68679619, 74.30691528, -2.41215301, 0.79560000, -0.04530000, -0.60259998, 0.04150000, 0.00000000, 0.00000000, 0.00000000, 0.00000000, 0.00000000, 0.00000000, 0.00000000
2, 0.3400, 34, 0.02893337, -1.09604120, -0.34834483, 0.87209624, -122.41439819, -40.86340714, 0.00000000, 0.00000000, 0.00000000, 56.10977554, -32.91643524, -94.13700104, -0.67399997, 0.12410000, -0.50049996, -0.52880001, -0.57000005, 0.40000001, -0.12300000, 0.00000000, 0.00000000, 0.00000000, 0.00000000
3, 0.3400, 34, 0.96275866, -0.02144765, -0.26914936, -0.00000009, 0.00000004, -0.00000006, 0.00000000, 0.00000000, 0.00000000, 4.68106651, 74.30691528, -2.42361236, 0.79560000, -0.04530000, -0.60259998, 0.04150000, 0.00000000, -0.00100000, 0.00000000, 0.00000000, 0.00000000, 0.00000000, 0.00000000
1, 0.3300, 33, -0.23986417, -1.15324569, -0.36279628, 20.51319313, -150.90225220, 14.03119087, 0.00000000, 0.00000000, 0.00000000, 34.31445312, -20.68951225, -32.20023727, -0.91769999, 0.23119999, -0.24529999, -0.20969999, -0.10300001, 0.62600005, -0.41300002, 0.00000000, 0.00000000, 0.00000000, 0.00000000
2, 0.3500, 35, 0.06091803, -1.10071957, -0.29369059, 4.22591829, -122.25448608, -55.22515106, 0.00000000, 0.00000000, 0.00000000, 57.01504898, -33.12842941, -95.71836090, -0.66600001, 0.12109999, -0.50729996, -0.53319997, -0.60700005, 0.40100002, -0.16600001, 0.00000000, 0.00000000, 0.00000000, 0.00000000
3, 0.3500, 35, 0.96275866, -0.02144765, -0.26914936, -0.00000009, 0.00000004, -0.00000006, 0.00000000, 0.00000000, 0.00000000, 4.68106651, 74.30691528, -2.41788268, 0.79560000, -0.04530000, -0.60259998, 0.04150000, 0.00000000, 0.00000000, 0.00000000, 0.00000000, 0.00000000, 0.00000000, 0.00000000
1, 0.3400, 34, -0.30413461, -1.21561801, -0.27742288, 16.09437370, -180.18350220, 18.88365173, 0.00000000, 0.00000000, 0.00000000, 34.81292725, -22.28233528, -33.12842941, -0.91380000, 0.22870000, -0.26040000, -0.21149999, -0.06400000, 0.68700004, -0.48600003, 0.00000000, 0.00000000, 0.00000000, 0.00000000
2, 0.3600, 36, 0.06222014, -1.15531504, -0.31333524, 10.32513618, -124.66675568, -72.60839844, 0.00000000, 0.00000000, 0.00000000, 58.06356049, -33.18572617, -97.43723297, -0.65689999, 0.11910000, -0.51419997, -0.53819996, -0.60900003, 0.44800001, -0.13400000, 0.00000000, 0.00000000, 0.00000000, 0.00000000
3, 0.3600, 36, 0.96275866, -0.02144765, -0.26914936, -0.00000009, 0.00000004, -0.00000006, 0.00000000, 0.00000000, 0.00000000, 4.68106651, 74.30691528, -2.42361236, 0.79560000, -0.04530000, -0.60259998, 0.04150000, -0.00100000, 0.00000000, 0.00000000, 0.00000000, 0.00000000, 0.00000000, 0.00000000
3, 0.3700, 37, 0.96275866, -0.02144765, -0.26914936, -0.00000009, 0.00000004, -0.00000006, 0.00000000, 0.00000000, 0.00000000, 4.68106651, 74.30691528, -2.42361236, 0.79560000, -0.04530000, -0.60259998, 0.04150000, -0.00100000, 0.00000000, 0.00000000, 0.00000000, 0.00000000, 0.00000000, 0.00000000
3, 0.3800, 38, 0.96275866, -0.02144765, -0.26914936, -0.00000009, 0.00000004, -0.00000006, 0.00000000, 0.00000000, 0.00000000, 4.68106651, 74.30691528, -2.42361236, 0.79560000, -0.04530000, -0.60259998, 0.04150000, -0.00100000, 0.00000000, 0.00000000, 0.00000000, 0.00000000, 0.00000000, 0.00000000
1, 0.3500, 35, -0.38934556, -1.28596449, -0.19535589, 12.81611919, -199.90946960, 29.52846909, 0.00000000, 0.00000000, 0.00000000, 35.33432007, -24.08715439, -34.11391830, -0.90939999, 0.22540000, -0.27710000, -0.21280000, -0.00700000, 0.75800002, -0.55400002, 0.00000000, 0.00000000, 0.00000000, 0.00000000
1, 0.3600, 36, -0.47926682, -1.31423199, -0.13589364, 13.07710361, -208.52891541, 40.08547211, 0.00000000, 0.00000000, 0.00000000, 35.87862778, -26.01802063, -35.09367752, -0.90469998, 0.22149999, -0.29470000, -0.21329999, 0.05200000, 0.78700006, -0.59800005, 0.00000000, 0.00000000, 0.00000000, 0.00000000
2, 0.3700, 37, 0.03405736, -1.23046863, -0.35976341, 18.37632370, -133.14358521, -87.76935577, 0.00000000, 0.00000000, 0.00000000, 59.28968811, -33.12269974, -99.34518433, -0.64660001, 0.11790000, -0.52169997, -0.54380000, -0.58100003, 0.51500005, -0.07300001, 0.00000000, 0.00000000, 0.00000000, 0.00000000
2, 0.3800, 38, -0.02888243, -1.31411874, -0.35262582, 25.58393288, -143.34167480, -98.19022369, 0.00000000, 0.00000000, 0.00000000, 60.67052078, -32.99092102, -101.41356659, -0.63499999, 0.11700000, -0.52999997, -0.54960001, -0.51600003, 0.58700001, -0.06400000, 0.00000000, 0.00000000, 0.00000000, 0.00000000
3, 0.3900, 39, 0.96275866, -0.02144765, -0.26914936, -0.00000009, 0.00000004, -0.00000006, 0.00000000, 0.00000000, 0.00000000, 4.68679619, 74.30691528, -2.41788268, 0.79560000, -0.04530000, -0.60259998, 0.04150000, 0.00000000, 0.00000000, 0.00000000, 0.00000000, 0.00000000, 0.00000000, 0.00000000
1, 0.3700, 37, -0.55949271, -1.32428575, -0.12198753, 18.50619698, -205.47897339, 46.09714890, 0.00000000, 0.00000000, 0.00000000, 36.49169540, -27.94889069, -36.03905869, -0.89969999, 0.21789999, -0.31209999, -0.21319999, 0.10100000, 0.79800004, -0.59400004, 0.00000000, 0.00000000, 0.00000000, 0.00000000
3, 0.4000, 40, 0.96275866, -0.02144765, -0.26914936, -0.00000009, 0.00000004, -0.00000006, 0.00000000, 0.00000000, 0.00000000, 4.69252586, 74.30691528, -2.41215301, 0.79560000, -0.04530000, -0.60259998, 0.04150000, 0.00000000, 0.00100000, 0.00000000, 0.00000000, 0.00000000, 0.00000000, 0.00000000
1, 0.3800, 38, -0.61232495, -1.31422579, -0.13448176, 26.75904083, -191.64068604, 49.13506699, 0.00000000, 0.00000000, 0.00000000, 37.17351151, -29.77662659, -36.90422440, -0.89479995, 0.21509999, -0.32850000, -0.21220000, 0.12600000, 0.79000002, -0.56300002, 0.00000000, 0.00000000, 0.00000000, 0.00000000
1, 0.3900, 39, -0.66661692, -1.27000463, -0.18455538, 35.30241013, -173.60871887, 50.23462296, 0.00000000, 0.00000000, 0.00000000, 37.91835785, -31.46112251, -37.66625977, -0.88999999, 0.21319999, -0.34360000, -0.21050000, 0.15400001, 0.74500006, -0.49400002, 0.00000000, 0.00000000, 0.00000000, 0.00000000
1, 0.4000, 40, -0.72163057, -1.16771436, -0.25804389, 42.57490921, -154.88511658, 50.28213120, 0.00000000, 0.00000000, 0.00000000, 38.70331192, -32.99092102, -38.33662033, -0.88529998, 0.21210000, -0.35729998, -0.20809999, 0.18600000, 0.64400005, -0.40200001, 0.00000000, 0.00000000, 0.00000000, 0.00000000
1, 0.4100, 41, -0.75378412, -1.04747880, -0.32413149, 45.94998932, -136.74780273, 50.38388443, 0.00000000, 0.00000000, 0.00000000, 39.47680664, -34.36602020, -38.90384674, -0.88110000, 0.21159999, -0.36960000, -0.20529999, 0.19600001, 0.52200001, -0.31900001, 0.00000000, 0.00000000, 0.00000000, 0.00000000
2, 0.3900, 39, -0.11934588, -1.33634710, -0.30710897, 32.56412506, -150.28454590, -105.71750641, 0.00000000, 0.00000000, 0.00000000, 62.17739868, -32.78465652, -103.58507538, -0.62259996, 0.11640000, -0.53869998, -0.55540001, -0.42200002, 0.59800005, -0.09100001, 0.00000000, 0.00000000, 0.00000000, 0.00000000
3, 0.4100, 41, 0.96275866, -0.02144765, -0.26914936, -0.00000009, 0.00000004, -0.00000006, 0.00000000, 0.00000000, 0.00000000, 4.69252586, 74.30691528, -2.41215301, 0.79560000, -0.04530000, -0.60259998, 0.04150000, 0.00000000, 0.00000000, 0.00000000, 0.00000000, 0.00000000, 0.00000000, 0.00000000
2, 0.4000, 40, -0.21683581, -1.36756074, -0.25878862, 40.47217560, -150.29377747, -112.88871765, 0.00000000, 0.00000000, 0.00000000, 63.77021790, -32.45806885, -105.78523254, -0.60949999, 0.11669999, -0.54759997, -0.56099999, -0.32100001, 0.61500001, -0.12000000, 0.00000000, 0.00000000, 0.00000000, 0.00000000
2, 0.4100, 41, -0.30866775, -1.33523881, -0.18961357, 46.25350952, -141.22215271, -122.37606049, 0.00000000, 0.00000000, 0.00000000, 65.36878204, -31.95959663, -107.91090393, -0.59619999, 0.11800000, -0.55610001, -0.56669998, -0.22300000, 0.57000005, -0.17000000, 0.00000000, 0.00000000, 0.00000000, 0.00000000
2, 0.4200, 42, -0.37538412, -1.27195227, -0.13175327, 52.50454712, -124.46835327, -132.08283997, 0.00000000, 0.00000000, 0.00000000, 66.92149353, -31.25485802, -109.87615204, -0.58309996, 0.12100000, -0.56369996, -0.57220000, -0.14700000, 0.49200001, -0.20900001, 0.00000000, 0.00000000, 0.00000000, 0.00000000
3, 0.4200, 42, 0.96276802, -0.02244201, -0.26915801, -0.00000009, 0.00000004, -0.00000006, 0.00000000, 0.00000000, 0.00000000, 4.69825506, 74.30691528, -2.40642357, 0.79560000, -0.04530000, -0.60259998, 0.04150000, -0.00100000, 0.00000000, 0.00000000, 0.00000000, 0.00000000, 0.00000000, 0.00000000
1, 0.4200, 42, -0.76518130, -0.93132359, -0.37406790, 45.71186066, -118.62617493, 50.77571869, 0.00000000, 0.00000000, 0.00000000, 40.19300461, -35.60361099, -39.35648346, -0.87720001, 0.21130000, -0.38049999, -0.20209999, 0.18900001, 0.40600002, -0.25200000, 0.00000000, 0.00000000, 0.00000000, 0.00000000
3, 0.4300, 43, 0.96276802, -0.02244201, -0.26915801, -0.00000009, 0.00000004, -0.00000006, 0.00000000, 0.00000000, 0.00000000, 4.70398474, 74.30691528, -2.40069389, 0.79560000, -0.04530000, -0.60259998, 0.04150000, 0.00000000, 0.00000000, 0.00000000, 0.00000000, 0.00000000, 0.00000000, 0.00000000
2, 0.4300, 43, -0.41884655, -1.18757129, -0.09337439, 56.96018219, -105.01717377, -139.55644226, 0.00000000, 0.00000000, 0.00000000, 68.38825989, -30.36677170, -111.62367249, -0.57019997, 0.12549999, -0.57040000, -0.57760000, -0.09100001, 0.39200002, -0.23000000, 0.00000000, 0.00000000, 0.00000000, 0.00000000
1, 0.4300, 43, -0.76816505, -0.81335765, -0.38702619, 44.83019257, -103.79959869, 48.67679977, 0.00000000, 0.00000000, 0.00000000, 40.86336136, -36.70941925, -39.72890472, -0.87379998, 0.21130000, -0.39010000, -0.19880000, 0.17600001, 0.28900000, -0.22400001, 0.00000000, 0.00000000, 0.00000000, 0.00000000
2, 0.4400, 44, -0.45988286, -1.09492946, -0.08096565, 60.99208069, -85.57174683, -142.90167236, 0.00000000, 0.00000000, 0.00000000, 69.75189972, -29.33544731, -113.13628387, -0.55799997, 0.13130000, -0.57609999, -0.58249998, -0.03500000, 0.28300002, -0.22500001, 0.00000000, 0.00000000, 0.00000000, 0.00000000
3, 0.4400, 44, 0.96276802, -0.02244201, -0.26915801, -0.00000009, 0.00000004, -0.00000006, 0.00000000, 0.00000000, 0.00000000, 4.70398474, 74.30691528, -2.40069389, 0.79560000, -0.04530000, -0.60259998, 0.04140000, 0.00000000, 0.00000000, 0.00000000, 0.00000000, 0.00000000, 0.00000000, 0.00000000
3, 0.4500, 45, 0.96275866, -0.02144765, -0.26914936, -0.00000009, 0.00000004, -0.00000006, 0.00000000, 0.00000000, 0.00000000, 4.70398474, 74.30691528, -2.40069389, 0.79560000, -0.04530000, -0.60259998, 0.04140000, -0.00100000, 0.00000000, 0.00000000, 0.00000000, 0.00000000, 0.00000000, 0.00000000
1, 0.4400, 44, -0.78357261, -0.71551776, -0.37141427, 45.63789368, -98.57495117, 46.74915314, 0.00000000, 0.00000000, 0.00000000, 41.54518127, -37.76366043, -40.10705948, -0.87029999, 0.21149999, -0.39929998, -0.19550000, 0.17600001, 0.19100001, -0.22500001, 0.00000000, 0.00000000, 0.00000000, 0.00000000
2, 0.4500, 45, -0.50638539, -1.01587391, -0.09990717, 64.36297607, -67.89850616, -141.90641785, 0.00000000, 0.00000000, 0.00000000, 71.01240540, -28.22391129, -114.40824890, -0.54659998, 0.13810000, -0.58099997, -0.58690000, 0.02700000, 0.18800001, -0.19100001, 0.00000000, 0.00000000, 0.00000000, 0.00000000
1, 0.4500, 45, -0.78883916, -0.61663508, -0.36463967, 49.43894958, -98.54930878, 45.48471451, 0.00000000, 0.00000000, 0.00000000, 42.29576111, -38.80071259, -40.51385880, -0.86669999, 0.21190000, -0.40840000, -0.19209999, 0.16800001, 0.09200001, -0.21600001, 0.00000000, 0.00000000, 0.00000000, 0.00000000
1, 0.4600, 46, -0.75314248, -0.55244130, -0.41446945, 53.84310532, -100.57456970, 43.64885712, 0.00000000, 0.00000000, 0.00000000, 43.13227844, -39.83776855, -40.97795486, -0.86280000, 0.21280000, -0.41769999, -0.18869999, 0.11700001, 0.02700000, -0.15100001, 0.00000000, 0.00000000, 0.00000000, 0.00000000
3, 0.4600, 46, 0.96275866, -0.02144765, -0.26914936, -0.00000009, 0.00000004, -0.00000006, 0.00000000, 0.00000000, 0.00000000, 4.70398474, 74.30691528, -2.40069389, 0.79560000, -0.04530000, -0.60259998, 0.04150000, 0.00000000, 0.00000000, 0.00000000, 0.00000000, 0.00000000, 0.00000000, 0.00000000
3, 0.4700, 47, 0.96275866, -0.02144765, -0.26914936, -0.00000009, 0.00000004, -0.00000006, 0.00000000, 0.00000000, 0.00000000, 4.69825506, 74.30691528, -2.40642357, 0.79560000, -0.04530000, -0.60259998, 0.04150000, 0.00000000, 0.00000000, 0.00000000, 0.00000000, 0.00000000, 0.00000000, 0.00000000
1, 0.4700, 47, -0.70737743, -0.52721435, -0.46451858, 55.05771637, -100.64973450, 39.98807526, 0.00000000, 0.00000000, 0.00000000, 44.02608871, -40.84044266, -41.51080704, -0.85869998, 0.21380000, -0.42690000, -0.18550000, 0.05900000, 0.00200000, -0.08500000, 0.00000000, 0.00000000, 0.00000000, 0.00000000
3, 0.4800, 48, 0.96275866, -0.02144765, -0.26914936, -0.00000009, 0.00000004, -0.00000006, 0.00000000, 0.00000000, 0.00000000, 4.69252586, 74.30691528, -2.41215301, 0.79560000, -0.04530000, -0.60259998, 0.04150000, 0.00000000, 0.00000000, 0.00000000, 0.00000000, 0.00000000, 0.00000000, 0.00000000
1, 0.4800, 48, -0.70183522, -0.52104443, -0.49926940, 53.49083710, -96.93492126, 33.59394455, 0.00000000, 0.00000000, 0.00000000, 44.94855499, -41.76863480, -42.09522247, -0.85459995, 0.21499999, -0.43570000, -0.18279999, 0.04000000, -0.00400000, -0.03300000, 0.00000000, 0.00000000, 0.00000000, 0.00000000
3, 0.4900, 49, 0.96275866, -0.02144765, -0.26914936, -0.00000009, 0.00000004, -0.00000006, 0.00000000, 0.00000000, 0.00000000, 4.68106651, 74.30691528, -2.42361236, 0.79560000, -0.04530000, -0.60259998, 0.04150000, -0.00100000, 0.00000000, 0.00000000, 0.00000000, 0.00000000, 0.00000000, 0.00000000
1, 0.4900, 49, -0.71994376, -0.53207201, -0.49160951, 52.59486771, -90.65242004, 28.02191734, 0.00000000, 0.00000000, 0.00000000, 45.88247299, -42.60515594, -42.70256042, -0.85060000, 0.21640000, -0.44380000, -0.18040000, 0.04700000, 0.00400000, -0.02600000, 0.00000000, 0.00000000, 0.00000000, 0.00000000
3, 0.5000, 50, 0.96275866, -0.02144765, -0.26914936, -0.00000009, 0.00000004, -0.00000006, 0.00000000, 0.00000000, 0.00000000, 4.68679619, 74.30691528, -2.41788268, 0.79560000, -0.04530000, -0.60259998, 0.04150000, 0.00000000, 0.00000000, 0.00000000, 0.00000000, 0.00000000, 0.00000000, 0.00000000
1, 0.5000, 50, -0.73136038, -0.53820062, -0.46489829, 53.77599335, -85.17969513, 24.20365334, 0.00000000, 0.00000000, 0.00000000, 46.83931732, -43.37291718, -43.31562424, -0.84660000, 0.21810000, -0.45139998, -0.17809999, 0.04800000, 0.00800000, -0.03700000, 0.00000000, 0.00000000, 0.00000000, 0.00000000
1, 0.5100, 51, -0.73787224, -0.51637012, -0.43489709, 59.19664764, -81.65182495, 22.05378914, 0.00000000, 0.00000000, 0.00000000, 47.86491013, -44.08911514, -43.94014740, -0.84259999, 0.22029999, -0.45879999, -0.17569999, 0.04500000, -0.01400000, -0.05200000, 0.00000000, 0.00000000, 0.00000000, 0.00000000
3, 0.5100, 51, 0.96275866, -0.02144765, -0.26914936, -0.00000009, 0.00000004, -0.00000006, 0.00000000, 0.00000000, 0.00000000, 4.68679619, 74.30691528, -2.41788268, 0.79560000, -0.04530000, -0.60259998, 0.04150000, 0.00000000, 0.00000000, 0.00000000, 0.00000000, 0.00000000, 0.00000000, 0.00000000
2, 0.4600, 46, -0.55580074, -0.97262812, -0.12430245, 65.10454559, -52.54710388, -137.75405884, 0.00000000, 0.00000000, 0.00000000, 72.15260315, -27.08372498, -115.46248627, -0.53600001, 0.14549999, -0.58510000, -0.59069997, 0.09400000, 0.13000001, -0.15300001, 0.00000000, 0.00000000, 0.00000000, 0.00000000
2, 0.4700, 47, -0.58367646, -0.92969722, -0.12527670, 64.48284912, -37.89281464, -132.59455872, 0.00000000, 0.00000000, 0.00000000, 73.17246246, -25.93207932, -116.31047058, -0.52639997, 0.15330000, -0.58849996, -0.59410000, 0.14000000, 0.07400000, -0.13900001, 0.00000000, 0.00000000, 0.00000000, 0.00000000
1, 0.5200, 52, -0.73624963, -0.46250892, -0.41647664, 68.78987885, -78.35202026, 21.40364838, 0.00000000, 0.00000000, 0.00000000, 48.98790741, -44.77093506, -44.55894470, -0.83840001, 0.22330000, -0.46599999, -0.17289999, 0.03500000, -0.07100000, -0.05400000, 0.00000000, 0.00000000, 0.00000000, 0.00000000
3, 0.5200, 52, 0.96275866, -0.02144765, -0.26914936, -0.00000009, 0.00000004, -0.00000006, 0.00000000, 0.00000000, 0.00000000, 4.69252586, 74.30691528, -2.41215301, 0.79560000, -0.04530000, -0.60259998, 0.04150000, -0.00100000, 0.00000000, 0.00000000, 0.00000000, 0.00000000, 0.00000000, 0.00000000
3, 0.5300, 53, 0.96275866, -0.02144765, -0.26914936, -0.00000009, 0.00000004, -0.00000006, 0.00000000, 0.00000000, 0.00000000, 4.69252586, 74.30691528, -2.41215301, 0.79560000, -0.04530000, -0.60259998, 0.04150000, 0.00000000, 0.00000000, 0.00000000, 0.00000000, 0.00000000, 0.00000000, 0.00000000
1, 0.5300, 53, -0.73509228, -0.40747753, -0.43192533, 81.11161804, -75.04776001, 21.31224251, 0.00000000, 0.00000000, 0.00000000, 50.23122787, -45.41838074, -45.17200851, -0.83410001, 0.22720000, -0.47309998, -0.16939999, 0.02600000, -0.12900001, -0.02300000, 0.00000000, 0.00000000, 0.00000000, 0.00000000
2, 0.4800, 48, -0.57504940, -0.88611072, -0.10358848, 64.53218842, -23.95485306, -128.98091125, 0.00000000, 0.00000000, 0.00000000, 74.10065460, -24.76324272, -116.96936798, -0.51760000, 0.16170000, -0.59109998, -0.59689999, 0.14900000, 0.01700000, -0.14800000, 0.00000000, 0.00000000, 0.00000000, 0.00000000
2, 0.4900, 49, -0.53452313, -0.85953355, -0.08258867, 66.07829285, -12.49178505, -127.25875092, 0.00000000, 0.00000000, 0.00000000, 74.97154999, -23.57149124, -117.47357178, -0.50929999, 0.17060000, -0.59329998, -0.59939998, 0.12700000, -0.02100000, -0.15900001, 0.00000000, 0.00000000, 0.00000000, 0.00000000
2, 0.5000, 50, -0.49333751, -0.86140347, -0.10203850, 67.47959900, -6.57789612, -127.19052124, 0.00000000, 0.00000000, 0.00000000, 75.81380463, -22.35682106, -117.89183807, -0.50129998, 0.17979999, -0.59520000, -0.60159999, 0.10600001, -0.03000000, -0.12700000, 0.00000000, 0.00000000, 0.00000000, 0.00000000
3, 0.5400, 54, 0.96275866, -0.02144765, -0.26914936, -0.00000009, 0.00000004, -0.00000006, 0.00000000, 0.00000000, 0.00000000, 4.70398474, 74.30691528, -2.40069389, 0.79560000, -0.04530000, -0.60259998, 0.04150000, 0.00000000, 0.00000000, 0.00000000, 0.00000000, 0.00000000, 0.00000000, 0.00000000
1, 0.5400, 54, -0.69521004, -0.36821675, -0.49088880, 94.23107147, -69.45525360, 21.41176605, 0.00000000, 0.00000000, 0.00000000, 51.58913803, -46.02571487, -45.75069427, -0.82959998, 0.23220000, -0.47999999, -0.16540000, -0.02100000, -0.17300001, 0.05300000, 0.00000000, 0.00000000, 0.00000000, 0.00000000
3, 0.5500, 55, 0.96275866, -0.02144765, -0.26914936, -0.00000009, 0.00000004, -0.00000006, 0.00000000, 0.00000000, 0.00000000, 4.70398474, 74.31264496, -2.40069389, 0.79560000, -0.04530000, -0.60259998, 0.04150000, 0.00000000, 0.00000000, 0.00000000, 0.00000000, 0.00000000, 0.00000000, 0.00000000
1, 0.5500, 55, -0.62938422, -0.32566103, -0.60929340, 105.40469360, -56.82218933, 20.00683975, 0.00000000, 0.00000000, 0.00000000, 52.98715210, -46.52991867, -46.22052002, -0.82529998, 0.23809999, -0.48600000, -0.16059999, -0.09300000, -0.22000001, 0.18900001, 0.00000000, 0.00000000, 0.00000000, 0.00000000
2, 0.5100, 51, -0.46158913, -0.88680285, -0.15401269, 66.62277985, -5.08005142, -128.39802551, 0.00000000, 0.00000000, 0.00000000, 76.62166595, -21.12496185, -118.27571869, -0.49319997, 0.18910000, -0.59689999, -0.60380000, 0.09300000, -0.01600000, -0.06500001, 0.00000000, 0.00000000, 0.00000000, 0.00000000
3, 0.5600, 56, 0.96275866, -0.02144765, -0.26914936, -0.00000009, 0.00000004, -0.00000006, 0.00000000, 0.00000000, 0.00000000, 4.70398474, 74.31264496, -2.40069389, 0.79560000, -0.04530000, -0.60259998, 0.04140000, -0.00100000, 0.00000000, 0.00100000, 0.00000000, 0.00000000, 0.00000000, 0.00000000
1, 0.5600, 56, -0.57372302, -0.31614476, -0.71415764, 109.13085938, -34.90793228, 13.91616249, 0.00000000, 0.00000000, 0.00000000, 54.28203964, -46.85077286, -46.51272964, -0.82169998, 0.24479999, -0.49030000, -0.15570000, -0.15400001, -0.23600002, 0.31000000, 0.00000000, 0.00000000, 0.00000000, 0.00000000
3, 0.5700, 57, 0.96275866, -0.02144765, -0.26914936, -0.00000009, 0.00000004, -0.00000006, 0.00000000, 0.00000000, 0.00000000, 4.69825506, 74.30691528, -2.40642357, 0.79560000, -0.04530000, -0.60259998, 0.04150000, -0.00100000, -0.00100000, 0.00100000, 0.00000000, 0.00000000, 0.00000000, 0.00000000
2, 0.5200, 52, -0.45819098, -0.92172223, -0.23965934, 62.92886353, -3.09947729, -131.31117249, 0.00000000, 0.00000000, 0.00000000, 77.37224579, -19.85299301, -118.62522125, -0.48499998, 0.19839999, -0.59810001, -0.60619998, 0.11000001, 0.00800000, 0.03000000, 0.00000000, 0.00000000, 0.00000000, 0.00000000
1, 0.5700, 57, -0.58655417, -0.36275387, -0.78345871, 106.22755432, -4.79881430, 3.43652964, 0.00000000, 0.00000000, 0.00000000, 55.35919952, -46.90233994, -46.53564453, -0.81930000, 0.25220001, -0.49210000, -0.15099999, -0.14300001, -0.19600001, 0.39100003, 0.00000000, 0.00000000, 0.00000000, 0.00000000
3, 0.5800, 58, 0.96275866, -0.02144765, -0.26914936, -0.00000009, 0.00000004, -0.00000006, 0.00000000, 0.00000000, 0.00000000, 4.69825506, 74.30691528, -2.40642357, 0.79560000, -0.04530000, -0.60259998, 0.04150000, 0.00000000, 0.00000000, 0.00000000, 0.00000000, 0.00000000, 0.00000000, 0.00000000
2, 0.5300, 53, -0.49553135, -0.96243894, -0.33303425, 57.06356812, 1.32329679, -133.89413452, 0.00000000, 0.00000000, 0.00000000, 78.03688049, -18.54092026, -118.91169739, -0.47700000, 0.20789999, -0.59869999, -0.60879999, 0.16900001, 0.03800000, 0.13300000, 0.00000000, 0.00000000, 0.00000000, 0.00000000
3, 0.5900, 59, 0.96275866, -0.02144765, -0.26914936, -0.00000009, 0.00000004, -0.00000006, 0.00000000, 0.00000000, 0.00000000, 4.69825506, 74.30691528, -2.40642357, 0.79560000, -0.04530000, -0.60259998, 0.04150000, 0.00000000, 0.00000000, 0.00000000, 0.00000000, 0.00000000, 0.00000000, 0.00000000
1, 0.5800, 58, -0.62292439, -0.44551826, -0.81549394, 101.40881348, 31.92937279, -6.30638647, 0.00000000, 0.00000000, 0.00000000, 56.12696075, -46.67315674, -46.20333099, -0.81830001, 0.26010001, -0.49100000, -0.14639999, -0.10400000, -0.12100001, 0.43100002, 0.00000000, 0.00000000, 0.00000000, 0.00000000
2, 0.5400, 54, -0.55295873, -0.96036893, -0.41622132, 49.94361877, 10.44678211, -135.08122253, 0.00000000, 0.00000000, 0.00000000, 78.59264374, -17.19446945, -119.09504700, -0.46939999, 0.21759999, -0.59840000, -0.61159998, 0.24900001, 0.02800000, 0.22500001, 0.00000000, 0.00000000, 0.00000000, 0.00000000
2, 0.5500, 55, -0.59295613, -0.90787244, -0.46747014, 44.61531830, 25.29658127, -135.10435486, 0.00000000, 0.00000000, 0.00000000, 79.04528046, -15.81936932, -119.10650635, -0.46259999, 0.22780000, -0.59719998, -0.61420000, 0.31200001, -0.03200000, 0.28200001, 0.00000000, 0.00000000, 0.00000000, 0.00000000
2, 0.5600, 56, -0.60677648, -0.83302075, -0.47389960, 41.84401703, 43.77116776, -134.19790649, 0.00000000, 0.00000000, 0.00000000, 79.41197205, -14.42135143, -118.92315674, -0.45679998, 0.23879999, -0.59490001, -0.61659998, 0.34900001, -0.11500000, 0.29400000, 0.00000000, 0.00000000, 0.00000000, 0.00000000
2, 0.5700, 57, -0.60070354, -0.77087969, -0.41792160, 40.17765427, 60.48171234, -129.55528259, 0.00000000, 0.00000000, 0.00000000, 79.72710419, -13.04052353, -118.55073547, -0.45209998, 0.25040001, -0.59189999, -0.61829996, 0.36600003, -0.18400002, 0.24300002, 0.00000000, 0.00000000, 0.00000000, 0.00000000
2, 0.5800, 58, -0.54748845, -0.74021322, -0.32039192, 40.49472046, 72.86808014, -121.18300629, 0.00000000, 0.00000000, 0.00000000, 80.01931000, -11.72272015, -118.03506470, -0.44849998, 0.26209998, -0.58849996, -0.61939996, 0.33600003, -0.22100002, 0.14900000, 0.00000000, 0.00000000, 0.00000000, 0.00000000
2, 0.5900, 59, -0.49337608, -0.79861075, -0.27902362, 38.79247284, 78.68656921, -110.99848938, 0.00000000, 0.00000000, 0.00000000, 80.28859711, -10.49659061, -117.43920135, -0.44560000, 0.27350000, -0.58499998, -0.61989999, 0.30300000, -0.16800001, 0.11200000, 0.00000000, 0.00000000, 0.00000000, 0.00000000
1, 0.5900, 59, -0.65796536, -0.50550455, -0.80746394, 96.81488800, 69.16967010, -15.69956017, 0.00000000, 0.00000000, 0.00000000, 56.58533096, -46.15749359, -45.49286270, -0.81879997, 0.26859999, -0.48690000, -0.14180000, -0.06500001, -0.06900001, 0.42600003, 0.00000000, 0.00000000, 0.00000000, 0.00000000
1, 0.6000, 60, -0.67353863, -0.53067601, -0.76901197, 94.41213226, 98.40257263, -24.04713631, 0.00000000, 0.00000000, 0.00000000, 56.82024384, -45.41838074, -44.50164413, -0.82049996, 0.27759999, -0.48040000, -0.13720000, -0.04100000, -0.05200000, 0.38700002, 0.00000000, 0.00000000, 0.00000000, 0.00000000
3, 0.6000, 60, 0.96275866, -0.02144765, -0.26914936, -0.00000009, 0.00000004, -0.00000006, 0.00000000, 0.00000000, 0.00000000, 4.69252586, 74.31264496, -2.40642357, 0.79560000, -0.04530000, -0.60259998, 0.04150000, 0.00000000, 0.00000000, 0.00000000, 0.00000000, 0.00000000, 0.00000000, 0.00000000
2, 0.6000, 60, -0.44277510, -0.89752752, -0.26726010, 33.36240768, 78.32010651, -101.66693115, 0.00000000, 0.00000000, 0.00000000, 80.51778412, -9.36786270, -116.82613373, -0.44329998, 0.28419998, -0.58129996, -0.62019998, 0.27300000, -0.07300001, 0.10300001, 0.00000000, 0.00000000, 0.00000000, 0.00000000
3, 0.6100, 61, 0.96275866, -0.02144765, -0.26914936, -0.00000009, 0.00000004, -0.00000006, 0.00000000, 0.00000000, 0.00000000, 4.69252586, 74.30691528, -2.40642357, 0.79560000, -0.04530000, -0.60259998, 0.04150000, 0.00000000, 0.00000000, 0.00000000, 0.00000000, 0.00000000, 0.00000000, 0.00000000
1, 0.6100, 61, -0.67893916, -0.55479461, -0.74138945, 94.47714233, 115.08126831, -28.13849068, 0.00000000, 0.00000000, 0.00000000, 56.95202255, -44.55321121, -43.35573196, -0.82260001, 0.28689998, -0.47259998, -0.13249999, -0.02600000, -0.03800000, 0.35500002, 0.00000000, 0.00000000, 0.00000000, 0.00000000
2, 0.6100, 61, -0.42251712, -1.00496268, -0.28918940, 26.00386810, 74.02471161, -95.72711182, 0.00000000, 0.00000000, 0.00000000, 80.68966675, -8.30216122, -116.24171448, -0.44119999, 0.29409999, -0.57739997, -0.62070000, 0.27100003, 0.02900000, 0.12900001, 0.00000000, 0.00000000, 0.00000000, 0.00000000
2, 0.6200, 62, -0.42074016, -1.09709775, -0.33834398, 16.82743645, 71.31369781, -92.90419006, 0.00000000, 0.00000000, 0.00000000, 80.78134155, -7.27083683, -115.68594360, -0.43930000, 0.30329999, -0.57319999, -0.62159997, 0.28800002, 0.11900000, 0.17900001, 0.00000000, 0.00000000, 0.00000000, 0.00000000
1, 0.6200, 62, -0.65965956, -0.58769798, -0.75539500, 96.57043457, 117.21228027, -28.96307373, 0.00000000, 0.00000000, 0.00000000, 57.11817932, -43.67085648, -42.20408630, -0.82459998, 0.29629999, -0.46449998, -0.12760000, -0.03400000, -0.01500000, 0.36500001, 0.00000000, 0.00000000, 0.00000000, 0.00000000
3, 0.6200, 62, 0.96275866, -0.02144765, -0.26914936, -0.00000009, 0.00000004, -0.00000006, 0.00000000, 0.00000000, 0.00000000, 4.69252586, 74.30691528, -2.41215301, 0.79560000, -0.04530000, -0.60259998, 0.04150000, -0.00200000, 0.00000000, 0.00100000, 0.00000000, 0.00000000, 0.00000000, 0.00000000
3, 0.6300, 63, 0.96275866, -0.02144765, -0.26914936, -0.00000009, 0.00000004, -0.00000006, 0.00000000, 0.00000000, 0.00000000, 4.69825506, 74.30691528, -2.40642357, 0.79560000, -0.04530000, -0.60259998, 0.04150000, 0.00000000, 0.00100000, 0.00000000, 0.00000000, 0.00000000, 0.00000000, 0.00000000
2, 0.6300, 63, -0.40616578, -1.13457084, -0.37666598, 9.17103481, 73.14619446, -93.41036224, 0.00000000, 0.00000000, 0.00000000, 80.80426788, -6.22805357, -115.10726166, -0.43759999, 0.31219998, -0.56839997, -0.62269998, 0.29000002, 0.15400001, 0.21800001, 0.00000000, 0.00000000, 0.00000000, 0.00000000
1, 0.6300, 63, -0.60343212, -0.61930621, -0.82872862, 98.28682709, 111.95389557, -28.54932976, 0.00000000, 0.00000000, 0.00000000, 57.35882187, -42.82287979, -41.12692261, -0.82620001, 0.30579999, -0.45679998, -0.12280000, -0.07900000, 0.00500000, 0.43400002, 0.00000000, 0.00000000, 0.00000000, 0.00000000
2, 0.6400, 64, -0.38120264, -1.12064850, -0.37913448, 3.67209935, 77.01303864, -96.85346985, 0.00000000, 0.00000000, 0.00000000, 80.78134155, -5.15089226, -114.49992371, -0.43599999, 0.32139999, -0.56290001, -0.62409997, 0.28400001, 0.13800001, 0.22000001, 0.00000000, 0.00000000, 0.00000000, 0.00000000
2, 0.6500, 65, -0.38123849, -1.13530207, -0.31706068, -0.83414930, 82.19244385, -96.88251495, 0.00000000, 0.00000000, 0.00000000, 80.72405243, -4.06227207, -113.84101868, -0.43480000, 0.33049998, -0.55699998, -0.62549996, 0.30300000, 0.15200001, 0.15700001, 0.00000000, 0.00000000, 0.00000000, 0.00000000
1, 0.6400, 64, -0.55673957, -0.62509215, -0.87106586, 95.81228638, 104.02214050, -31.19575500, 0.00000000, 0.00000000, 0.00000000, 57.66822052, -42.00355148, -40.16435242, -0.82739997, 0.31500000, -0.44939998, -0.11840000, -0.11600000, 0.00100000, 0.47500002, 0.00000000, 0.00000000, 0.00000000, 0.00000000
3, 0.6400, 64, 0.96275866, -0.02144765, -0.26914936, -0.00000009, 0.00000004, -0.00000006, 0.00000000, 0.00000000, 0.00000000, 4.69825506, 74.30691528, -2.40642357, 0.79560000, -0.04530000, -0.60259998, 0.04140000, -0.00100000, 0.00000000, 0.00000000, 0.00000000, 0.00000000, 0.00000000, 0.00000000
2, 0.6600, 66, -0.36900866, -1.09696782, -0.27228636, -6.22982502, 89.46734619, -96.27711487, 0.00000000, 0.00000000, 0.00000000, 80.61518860, -2.96792221, -113.11335754, -0.43399999, 0.33989999, -0.55049998, -0.62680000, 0.31000000, 0.11200000, 0.11000001, 0.00000000, 0.00000000, 0.00000000, 0.00000000
3, 0.6500, 65, 0.96276802, -0.02244201, -0.26915801, -0.00000009, 0.00000004, -0.00000006, 0.00000000, 0.00000000, 0.00000000, 4.70398474, 74.30691528, -2.40069389, 0.79560000, -0.04530000, -0.60259998, 0.04140000, 0.00000000, 0.00000000, 0.00000000, 0.00000000, 0.00000000, 0.00000000, 0.00000000
1, 0.6500, 65, -0.53261817, -0.61206228, -0.87963337, 90.98291016, 98.11475372, -37.14882278, 0.00000000, 0.00000000, 0.00000000, 58.01772308, -41.16130066, -39.31637573, -0.82830000, 0.32400000, -0.44219998, -0.11480000, -0.12900001, -0.02100000, 0.48200002, 0.00000000, 0.00000000, 0.00000000, 0.00000000
2, 0.6700, 67, -0.34630266, -1.07524908, -0.25864521, -11.03950977, 94.29614258, -95.68189240, 0.00000000, 0.00000000, 0.00000000, 80.47194672, -1.86784303, -112.33986664, -0.43359998, 0.34919998, -0.54339999, -0.62809998, 0.30700001, 0.09000000, 0.09400000, 0.00000000, 0.00000000, 0.00000000, 0.00000000
3, 0.6600, 66, 0.96276802, -0.02244201, -0.26915801, -0.00000009, 0.00000004, -0.00000006, 0.00000000, 0.00000000, 0.00000000, 4.70971441, 74.31264496, -2.39496446, 0.79560000, -0.04530000, -0.60259998, 0.04140000, 0.00000000, 0.00000000, 0.00000000, 0.00000000, 0.00000000, 0.00000000, 0.00000000
1, 0.6600, 66, -0.53785831, -0.59214461, -0.86657065, 86.79809570, 98.48997498, -42.09737778, 0.00000000, 0.00000000, 0.00000000, 58.35577011, -40.28467560, -38.50850677, -0.82919997, 0.33289999, -0.43480000, -0.11170000, -0.11200000, -0.05200000, 0.46700001, 0.00000000, 0.00000000, 0.00000000, 0.00000000
1, 0.6700, 67, -0.54125798, -0.58027542, -0.84259689, 82.76127625, 102.86768341, -46.97503281, 0.00000000, 0.00000000, 0.00000000, 58.65943909, -39.34502411, -37.68344879, -0.83010000, 0.34169999, -0.42670000, -0.10900000, -0.09700000, -0.07500000, 0.44100001, 0.00000000, 0.00000000, 0.00000000, 0.00000000
1, 0.6800, 68, -0.52957767, -0.57738054, -0.82250750, 79.19355774, 103.91802216, -50.53272247, 0.00000000, 0.00000000, 0.00000000, 58.94591904, -38.37672424, -36.87557602, -0.83109999, 0.35020000, -0.41839999, -0.10659999, -0.09500001, -0.08900000, 0.41900003, 0.00000000, 0.00000000, 0.00000000, 0.00000000
2, 0.6800, 68, -0.31531006, -1.05532897, -0.26396525, -15.72396183, 96.40092468, -95.50816345, 0.00000000, 0.00000000, 0.00000000, 80.29433441, -0.76203412, -111.54919434, -0.43339998, 0.35839999, -0.53590000, -0.62949997, 0.29500002, 0.06900001, 0.09600000, 0.00000000, 0.00000000, 0.00000000, 0.00000000
3, 0.6700, 67, 0.96276802, -0.02244201, -0.26915801, -0.00000009, 0.00000004, -0.00000006, 0.00000000, 0.00000000, 0.00000000, 4.70971441, 74.31264496, -2.39496446, 0.79560000, -0.04530000, -0.60259998, 0.04140000, 0.00000000, 0.00000000, 0.00000000, 0.00000000, 0.00000000, 0.00000000, 0.00000000
3, 0.6800, 68, 0.96276802, -0.02244201, -0.26915801, -0.00000009, 0.00000004, -0.00000006, 0.00000000, 0.00000000, 0.00000000, 4.70971441, 74.31264496, -2.39496446, 0.79560000, -0.04530000, -0.60259998, 0.04140000, 0.00000000, 0.00000000, 0.00000000, 0.00000000, 0.00000000, 0.00000000, 0.00000000
1, 0.6900, 69, -0.53308994, -0.58254153, -0.78971642, 77.56040955, 97.86238098, -51.72405243, 0.00000000, 0.00000000, 0.00000000, 59.27250290, -37.43134308, -36.14791870, -0.83179998, 0.35859999, -0.41040000, -0.10450000, -0.07800000, -0.09500001, 0.38400000, 0.00000000, 0.00000000, 0.00000000, 0.00000000
3, 0.6900, 69, 0.96275866, -0.02144765, -0.26914936, -0.00000009, 0.00000004, -0.00000006, 0.00000000, 0.00000000, 0.00000000, 4.70971441, 74.30691528, -2.39496446, 0.79560000, -0.04530000, -0.60259998, 0.04140000, 0.00000000, 0.00000000, 0.00000000, 0.00000000, 0.00000000, 0.00000000, 0.00000000
1, 0.7000, 70, -0.55478930, -0.58076125, -0.74612147, 77.85687256, 86.19068146, -50.88985062, 0.00000000, 0.00000000, 0.00000000, 59.68503571, -36.55472183, -35.54058456, -0.83190000, 0.36690000, -0.40320000, -0.10270000, -0.04400000, -0.10800000, 0.34000000, 0.00000000, 0.00000000, 0.00000000, 0.00000000
1, 0.7100, 71, -0.57858700, -0.57701248, -0.69655651, 79.37580109, 72.91505432, -49.29429626, 0.00000000, 0.00000000, 0.00000000, 60.19496155, -35.75830841, -35.06502914, -0.83139998, 0.37500000, -0.39710000, -0.10120000, -0.00900000, -0.12200001, 0.29300001, 0.00000000, 0.00000000, 0.00000000, 0.00000000
1, 0.7200, 72, -0.60335863, -0.57925320, -0.64805138, 81.52043152, 61.52684784, -47.51153564, 0.00000000, 0.00000000, 0.00000000, 60.79657364, -35.04211044, -34.69833755, -0.83050001, 0.38310000, -0.39170000, -0.09980000, 0.02600000, -0.13000001, 0.24700001, 0.00000000, 0.00000000, 0.00000000, 0.00000000
2, 0.6900, 69, -0.28305489, -1.03323746, -0.28530219, -21.84858894, 96.30713654, -96.58006287, 0.00000000, 0.00000000, 0.00000000, 80.07087708, 0.34377480, -110.76423645, -0.43329999, 0.36730000, -0.52800000, -0.63110000, 0.28200001, 0.04800000, 0.11500000, 0.00000000, 0.00000000, 0.00000000, 0.00000000
2, 0.7000, 70, -0.25164574, -1.00605953, -0.31563106, -27.68703842, 94.38697052, -97.25990295, 0.00000000, 0.00000000, 0.00000000, 79.80731964, 1.46677244, -110.00220490, -0.43309999, 0.37590000, -0.51980001, -0.63299996, 0.27000001, 0.02100000, 0.14100000, 0.00000000, 0.00000000, 0.00000000, 0.00000000
2, 0.7100, 71, -0.22824240, -0.98486310, -0.34414291, -32.95521164, 91.31568146, -97.07849884, 0.00000000, 0.00000000, 0.00000000, 79.50364685, 2.58404064, -109.28028107, -0.43300000, 0.38409999, -0.51129997, -0.63510001, 0.26600000, 0.00200000, 0.16400000, 0.00000000, 0.00000000, 0.00000000, 0.00000000
3, 0.7000, 70, 0.96275866, -0.02144765, -0.26914936, -0.00000009, 0.00000004, -0.00000006, 0.00000000, 0.00000000, 0.00000000, 4.70398474, 74.30691528, -2.40069389, 0.79560000, -0.04530000, -0.60259998, 0.04150000, 0.00000000, 0.00000000, 0.00100000, 0.00000000, 0.00000000, 0.00000000, 0.00000000
3, 0.7100, 71, 0.96276885, -0.02143963, -0.27015150, -0.00000009, 0.00000004, -0.00000006, 0.00000000, 0.00000000, 0.00000000, 4.70971441, 74.30119324, -2.39496446, 0.79560000, -0.04530000, -0.60259998, 0.04140000, 0.00000000, 0.00000000, 0.00100000, 0.00000000, 0.00000000, 0.00000000, 0.00000000
1, 0.7300, 73, -0.61092538, -0.58043224, -0.61228496, 84.27971649, 56.03894043, -46.62274933, 0.00000000, 0.00000000, 0.00000000, 61.45547485, -34.36602020, -34.37174988, -0.82909995, 0.39129999, -0.38679999, -0.09840000, 0.04300000, -0.14000000, 0.21600001, 0.00000000, 0.00000000, 0.00000000, 0.00000000
2, 0.7200, 72, -0.21087089, -0.98261905, -0.36994413, -37.71905518, 87.94036865, -95.62821198, 0.00000000, 0.00000000, 0.00000000, 79.16560364, 3.68984914, -108.58699036, -0.43279999, 0.39179999, -0.50260001, -0.63739997, 0.26800001, 0.00200000, 0.18500000, 0.00000000, 0.00000000, 0.00000000, 0.00000000
3, 0.7200, 72, 0.96276885, -0.02143963, -0.27015150, -0.00000009, 0.00000004, -0.00000006, 0.00000000, 0.00000000, 0.00000000, 4.70971441, 74.30119324, -2.39496446, 0.79560000, -0.04530000, -0.60259998, 0.04140000, 0.00000000, 0.00000000, 0.00000000, 0.00000000, 0.00000000, 0.00000000, 0.00000000
1, 0.7400, 74, -0.60120666, -0.57252634, -0.59516418, 86.67356873, 57.66075516, -47.90407562, 0.00000000, 0.00000000, 0.00000000, 62.12583160, -33.66701126, -34.03370285, -0.82769996, 0.39960000, -0.38169998, -0.09700000, 0.04300000, -0.15800001, 0.20400001, 0.00000000, 0.00000000, 0.00000000, 0.00000000
2, 0.7300, 73, -0.19085991, -0.98659867, -0.37469241, -40.80466843, 84.32040405, -93.12013245, 0.00000000, 0.00000000, 0.00000000, 78.80464172, 4.76128101, -107.93955231, -0.43269998, 0.39899999, -0.49399999, -0.63980001, 0.26700002, 0.00800000, 0.18400002, 0.00000000, 0.00000000, 0.00000000, 0.00000000
2, 0.7400, 74, -0.16320823, -0.98285210, -0.35916153, -42.13366318, 81.21261597, -90.69567108, 0.00000000, 0.00000000, 0.00000000, 78.43795013, 5.80979395, -107.32075500, -0.43259999, 0.40579998, -0.48529997, -0.64219999, 0.25800002, 0.00700000, 0.16200000, 0.00000000, 0.00000000, 0.00000000, 0.00000000
2, 0.7500, 75, -0.14077158, -0.98124403, -0.32968289, -42.40464783, 77.93769836, -88.54328918, 0.00000000, 0.00000000, 0.00000000, 78.07698822, 6.83538866, -106.73061371, -0.43239999, 0.41229999, -0.47689998, -0.64449996, 0.25300002, 0.00900000, 0.12700000, 0.00000000, 0.00000000, 0.00000000, 0.00000000
3, 0.7300, 73, 0.96275866, -0.02144765, -0.26914936, -0.00000009, 0.00000004, -0.00000006, 0.00000000, 0.00000000, 0.00000000, 4.70971441, 74.30119324, -2.39496446, 0.79560000, -0.04530000, -0.60249996, 0.04140000, 0.00000000, 0.00000000, 0.00000000, 0.00000000, 0.00000000, 0.00000000, 0.00000000
1, 0.7500, 75, -0.59923649, -0.58253288, -0.59223884, 88.87306213, 66.21807098, -51.00848770, 0.00000000, 0.00000000, 0.00000000, 62.78473282, -32.91070938, -33.60971451, -0.82629997, 0.40829998, -0.37590000, -0.09540000, 0.05200000, -0.15900001, 0.20600002, 0.00000000, 0.00000000, 0.00000000, 0.00000000
3, 0.7400, 74, 0.96275866, -0.02144765, -0.26914936, -0.00000009, 0.00000004, -0.00000006, 0.00000000, 0.00000000, 0.00000000, 4.70971441, 74.30119324, -2.39496446, 0.79560000, -0.04530000, -0.60259998, 0.04140000, 0.00000000, 0.00000000, 0.00000000, 0.00000000, 0.00000000, 0.00000000, 0.00000000
1, 0.7600, 76, -0.62531650, -0.61954105, -0.58390296, 89.49813843, 81.33242798, -52.73886490, 0.00000000, 0.00000000, 0.00000000, 63.36915207, -32.07418823, -33.03102875, -0.82529998, 0.41709998, -0.36890000, -0.09330000, 0.08900000, -0.13300000, 0.20300001, 0.00000000, 0.00000000, 0.00000000, 0.00000000
1, 0.7700, 77, -0.64843464, -0.64356631, -0.57442290, 89.49975586, 97.04734039, -51.71777344, 0.00000000, 0.00000000, 0.00000000, 63.86762619, -31.18037415, -32.28045273, -0.82470000, 0.42600000, -0.36069998, -0.09060000, 0.12600000, -0.11900000, 0.19600001, 0.00000000, 0.00000000, 0.00000000, 0.00000000
2, 0.7600, 76, -0.11348638, -0.98372489, -0.29214254, -42.68423080, 73.51740265, -85.88318634, 0.00000000, 0.00000000, 0.00000000, 77.71602631, 7.82660627, -106.18630219, -0.43219998, 0.41830000, -0.46859998, -0.64690000, 0.24400002, 0.01500000, 0.08300000, 0.00000000, 0.00000000, 0.00000000, 0.00000000
3, 0.7500, 75, 0.96275866, -0.02144765, -0.26914936, -0.00000009, 0.00000004, -0.00000006, 0.00000000, 0.00000000, 0.00000000, 4.71544409, 74.30119324, -2.38923478, 0.79560000, -0.04540000, -0.60249996, 0.04140000, -0.00100000, 0.00100000, 0.00100000, 0.00000000, 0.00000000, 0.00000000, 0.00000000
1, 0.7800, 78, -0.66873819, -0.66065359, -0.55388993, 90.91071320, 117.78954315, -49.68407059, 0.00000000, 0.00000000, 0.00000000, 64.27442169, -30.21780205, -31.30069542, -0.82449996, 0.43500000, -0.35099998, -0.08700000, 0.16000001, -0.11300001, 0.17900001, 0.00000000, 0.00000000, 0.00000000, 0.00000000
3, 0.7600, 76, 0.96276802, -0.02244201, -0.26915801, -0.00000009, 0.00000004, -0.00000006, 0.00000000, 0.00000000, 0.00000000, 4.71544409, 74.30119324, -2.38923478, 0.79560000, -0.04540000, -0.60249996, 0.04140000, -0.00100000, 0.00000000, 0.00000000, 0.00000000, 0.00000000, 0.00000000, 0.00000000
1, 0.7900, 79, -0.66216052, -0.68078268, -0.52509445, 92.61903381, 136.69921875, -47.24858093, 0.00000000, 0.00000000, 0.00000000, 64.61820221, -29.20366859, -30.11467361, -0.82479995, 0.44409999, -0.34009999, -0.08230000, 0.16800001, -0.10300001, 0.15000001, 0.00000000, 0.00000000, 0.00000000, 0.00000000
2, 0.7700, 77, -0.08017167, -0.98020786, -0.25745374, -45.80187607, 67.13244629, -84.83309174, 0.00000000, 0.00000000, 0.00000000, 77.32640839, 8.80063438, -105.71074677, -0.43179998, 0.42379999, -0.46030000, -0.64950001, 0.22700001, 0.01500000, 0.04300000, 0.00000000, 0.00000000, 0.00000000, 0.00000000
3, 0.7700, 77, 0.96276802, -0.02244201, -0.26915801, -0.00000009, 0.00000004, -0.00000006, 0.00000000, 0.00000000, 0.00000000, 4.72117376, 74.29546356, -2.38350534, 0.79560000, -0.04540000, -0.60249996, 0.04140000, 0.00000000, 0.00000000, 0.00000000, 0.00000000, 0.00000000, 0.00000000, 0.00000000
1, 0.8000, 80, -0.63448101, -0.69488543, -0.50297064, 94.47603607, 148.79689026, -43.96757889, 0.00000000, 0.00000000, 0.00000000, 64.92759705, -28.16661453, -28.79113960, -0.82510000, 0.45319998, -0.32830000, -0.07690000, 0.15600000, -0.09900001, 0.12900001, 0.00000000, 0.00000000, 0.00000000, 0.00000000
2, 0.7800, 78, -0.07671904, -0.98954767, -0.22538050, -48.65883636, 64.13353729, -82.02942657, 0.00000000, 0.00000000, 0.00000000, 76.91387939, 9.74028587, -105.26383972, -0.43149999, 0.42890000, -0.45209998, -0.65209997, 0.24000001, 0.02800000, 0.00400000, 0.00000000, 0.00000000, 0.00000000, 0.00000000
3, 0.7800, 78, 0.96275866, -0.02144765, -0.26914936, -0.00000009, 0.00000004, -0.00000006, 0.00000000, 0.00000000, 0.00000000, 4.72117376, 74.30119324, -2.38350534, 0.79560000, -0.04540000, -0.60249996, 0.04140000, 0.00000000, 0.00000000, 0.00000000, 0.00000000, 0.00000000, 0.00000000, 0.00000000
1, 0.8100, 81, -0.60076761, -0.70098108, -0.48369455, 96.27220917, 152.89204407, -40.99723434, 0.00000000, 0.00000000, 0.00000000, 65.25418091, -27.15247917, -27.42177010, -0.82529998, 0.46219999, -0.31630000, -0.07099999, 0.13800001, -0.10300001, 0.11000001, 0.00000000, 0.00000000, 0.00000000, 0.00000000
2, 0.7900, 79, -0.07587228, -0.99064827, -0.21634527, -52.81129456, 64.76963806, -78.81523132, 0.00000000, 0.00000000, 0.00000000, 76.46697235, 10.65128899, -104.81120300, -0.43149999, 0.43370000, -0.44369999, -0.65469998, 0.25500003, 0.03300000, -0.01000000, 0.00000000, 0.00000000, 0.00000000, 0.00000000
2, 0.8000, 80, -0.07279974, -0.98960280, -0.22130457, -57.77643204, 69.73593903, -76.03898621, 0.00000000, 0.00000000, 0.00000000, 75.98568726, 11.55656242, -104.30699921, -0.43210000, 0.43840000, -0.43489999, -0.65709996, 0.26700002, 0.03700000, -0.01200000, 0.00000000, 0.00000000, 0.00000000, 0.00000000
3, 0.7900, 79, 0.96275866, -0.02144765, -0.26914936, -0.00000009, 0.00000004, -0.00000006, 0.00000000, 0.00000000, 0.00000000, 4.72117376, 74.30119324, -2.38350534, 0.79560000, -0.04540000, -0.60249996, 0.04140000, 0.00000000, 0.00000000, 0.00000000, 0.00000000, 0.00000000, 0.00000000, 0.00000000
2, 0.8100, 81, -0.06471150, -0.98655432, -0.22817098, -61.18382263, 77.86846924, -72.06510162, 0.00000000, 0.00000000, 0.00000000, 75.49867249, 12.44464779, -103.71685791, -0.43320000, 0.44319999, -0.42569998, -0.65910000, 0.27500001, 0.03900000, -0.01300000, 0.00000000, 0.00000000, 0.00000000, 0.00000000
3, 0.8000, 80, 0.96275866, -0.02144765, -0.26914936, -0.00000009, 0.00000004, -0.00000006, 0.00000000, 0.00000000, 0.00000000, 4.72117376, 74.30119324, -2.38350534, 0.79560000, -0.04540000, -0.60249996, 0.04140000, 0.00000000, 0.00000000, 0.00000000, 0.00000000, 0.00000000, 0.00000000, 0.00000000
1, 0.8200, 82, -0.57625812, -0.69914269, -0.45250311, 97.54055786, 150.53291321, -38.97264099, 0.00000000, 0.00000000, 0.00000000, 65.62087250, -26.17271996, -26.06958771, -0.82519996, 0.47119999, -0.30440000, -0.06500000, 0.12900001, -0.11400001, 0.08100000, 0.00000000, 0.00000000, 0.00000000, 0.00000000
2, 0.8200, 82, -0.04092856, -0.97873271, -0.21968284, -63.03047943, 86.95085144, -67.02584076, 0.00000000, 0.00000000, 0.00000000, 75.02311707, 13.30981445, -103.02930450, -0.43500000, 0.44829997, -0.41619998, -0.66060001, 0.26600000, 0.03600000, -0.02800000, 0.00000000, 0.00000000, 0.00000000, 0.00000000
1, 0.8300, 83, -0.57056624, -0.70324063, -0.43254551, 98.88130188, 145.36952209, -36.66734695, 0.00000000, 0.00000000, 0.00000000, 66.04486847, -25.24452782, -24.76324272, -0.82459998, 0.48009998, -0.29299998, -0.05910000, 0.13900001, -0.11900000, 0.06400000, 0.00000000, 0.00000000, 0.00000000, 0.00000000
3, 0.8100, 81, 0.96275866, -0.02144765, -0.26914936, -0.00000009, 0.00000004, -0.00000006, 0.00000000, 0.00000000, 0.00000000, 4.71544409, 74.30119324, -2.38923478, 0.79560000, -0.04530000, -0.60259998, 0.04140000, -0.00100000, 0.00000000, 0.00000000, 0.00000000, 0.00000000, 0.00000000, 0.00000000
1, 0.8400, 84, -0.56642795, -0.72818893, -0.43869099, 99.98892212, 139.28608704, -33.90828705, 0.00000000, 0.00000000, 0.00000000, 66.51469421, -24.37363243, -23.50846481, -0.82379997, 0.48879999, -0.28200001, -0.05310000, 0.14800000, -0.10300001, 0.07400000, 0.00000000, 0.00000000, 0.00000000, 0.00000000
3, 0.8200, 82, 0.96275866, -0.02144765, -0.26914936, -0.00000009, 0.00000004, -0.00000006, 0.00000000, 0.00000000, 0.00000000, 4.70398474, 74.30119324, -2.40069389, 0.79560000, -0.04530000, -0.60249996, 0.04140000, 0.00000000, -0.00100000, 0.00000000, 0.00000000, 0.00000000, 0.00000000, 0.00000000
2, 0.8300, 83, -0.00726165, -0.95604497, -0.20585927, -64.65842438, 96.24742889, -61.12004852, 0.00000000, 0.00000000, 0.00000000, 74.56475067, 14.15206242, -102.24435425, -0.43750000, 0.45359999, -0.40640000, -0.66149998, 0.24700001, 0.02000000, -0.04800000, 0.00000000, 0.00000000, 0.00000000, 0.00000000
3, 0.8300, 83, 0.96275866, -0.02144765, -0.26914936, -0.00000009, 0.00000004, -0.00000006, 0.00000000, 0.00000000, 0.00000000, 4.70398474, 74.30119324, -2.40069389, 0.79560000, -0.04530000, -0.60249996, 0.04150000, 0.00000000, 0.00000000, 0.00000000, 0.00000000, 0.00000000, 0.00000000, 0.00000000
1, 0.8500, 85, -0.55519158, -0.78209746, -0.44799286, 99.70148468, 132.79705811, -31.11402130, 0.00000000, 0.00000000, 0.00000000, 67.02462006, -23.56576157, -22.30525398, -0.82249999, 0.49730000, -0.27160001, -0.04720000, 0.15100001, -0.05700000, 0.08800001, 0.00000000, 0.00000000, 0.00000000, 0.00000000
2, 0.8400, 84, -0.02242189, -0.94419628, -0.19291921, -64.09652710, 106.60095978, -50.00332642, 0.00000000, 0.00000000, 0.00000000, 74.15222168, 14.91409588, -101.32189178, -0.44090000, 0.45899999, -0.39659998, -0.66139996, 0.27500001, 0.01300000, -0.06800000, 0.00000000, 0.00000000, 0.00000000, 0.00000000
2, 0.8500, 85, 0.07186549, -0.99052137, -0.16986126, -65.25709534, 115.20762634, -47.36923981, 0.00000000, 0.00000000, 0.00000000, 73.76834106, 15.68758869, -100.30775452, -0.44470000, 0.46469998, -0.38650000, -0.66079998, 0.19300000, 0.06400000, -0.09600000, 0.00000000, 0.00000000, 0.00000000, 0.00000000
2, 0.8600, 86, 0.09291509, -0.94465584, -0.17605898, -63.53147125, 126.06069946, -39.21693039, 0.00000000, 0.00000000, 0.00000000, 73.44747925, 16.42097664, -99.16756439, -0.44919997, 0.47079998, -0.37639999, -0.65929997, 0.18400002, 0.02300000, -0.09500001, 0.00000000, 0.00000000, 0.00000000, 0.00000000
3, 0.8400, 84, 0.96275866, -0.02144765, -0.26914936, -0.00000009, 0.00000004, -0.00000006, 0.00000000, 0.00000000, 0.00000000, 4.70398474, 74.30119324, -2.40069389, 0.79560000, -0.04530000, -0.60249996, 0.04140000, 0.00000000, 0.00000000, 0.00000000, 0.00000000, 0.00000000, 0.00000000, 0.00000000
1, 0.8600, 86, -0.55307150, -0.83304232, -0.45040303, 97.13429260, 126.98252106, -27.95004463, 0.00000000, 0.00000000, 0.00000000, 67.54029083, -22.82091713, -21.14788055, -0.82110000, 0.50540000, -0.26159999, -0.04140000, 0.16100001, -0.01400000, 0.09700000, 0.00000000, 0.00000000, 0.00000000, 0.00000000
2, 0.8700, 87, 0.12647730, -0.94993800, -0.15651847, -60.99177551, 132.34465027, -37.34782791, 0.00000000, 0.00000000, 0.00000000, 73.18965149, 17.15436172, -97.95862579, -0.45389998, 0.47720000, -0.36609998, -0.65730000, 0.16300000, 0.03300000, -0.11800001, 0.00000000, 0.00000000, 0.00000000, 0.00000000
3, 0.8500, 85, 0.96275866, -0.02144765, -0.26914936, -0.00000009, 0.00000004, -0.00000006, 0.00000000, 0.00000000, 0.00000000, 4.70398474, 74.30119324, -2.40069389, 0.79560000, -0.04530000, -0.60249996, 0.04140000, -0.00100000, 0.00000000, 0.00000000, 0.00000000, 0.00000000, 0.00000000, 0.00000000
1, 0.8700, 87, -0.54815573, -0.85706204, -0.44258317, 94.50812531, 122.37347412, -25.30095863, 0.00000000, 0.00000000, 0.00000000, 68.05594635, -22.12190819, -20.02488136, -0.81959999, 0.51319999, -0.25200000, -0.03560000, 0.16800001, 0.00000000, 0.09400000, 0.00000000, 0.00000000, 0.00000000, 0.00000000
3, 0.8600, 86, 0.96275866, -0.02144765, -0.26914936, -0.00000009, 0.00000004, -0.00000006, 0.00000000, 0.00000000, 0.00000000, 4.70971441, 74.30119324, -2.39496446, 0.79560000, -0.04530000, -0.60249996, 0.04140000, 0.00000000, 0.00000000, 0.00000000, 0.00000000, 0.00000000, 0.00000000, 0.00000000
1, 0.8800, 88, -0.52020079, -0.85708165, -0.43926316, 92.11616516, 119.48934937, -23.56325722, 0.00000000, 0.00000000, 0.00000000, 68.56587982, -21.46300507, -18.91907310, -0.81790000, 0.52059996, -0.24270000, -0.02990000, 0.15100001, -0.00500000, 0.09700000, 0.00000000, 0.00000000, 0.00000000, 0.00000000
3, 0.8700, 87, 0.96275866, -0.02144765, -0.26914936, -0.00000009, 0.00000004, -0.00000006, 0.00000000, 0.00000000, 0.00000000, 4.71544409, 74.30119324, -2.39496446, 0.79560000, -0.04540000, -0.60259998, 0.04140000, -0.00100000, 0.00000000, 0.00000000, 0.00000000, 0.00000000, 0.00000000, 0.00000000
3, 0.8800, 88, 0.96275866, -0.02144765, -0.26914936, -0.00000009, 0.00000004, -0.00000006, 0.00000000, 0.00000000, 0.00000000, 4.72117376, 74.30119324, -2.38923478, 0.79560000, -0.04540000, -0.60249996, 0.04140000, 0.00000000, 0.00000000, 0.00000000, 0.00000000, 0.00000000, 0.00000000, 0.00000000
1, 0.8900, 89, -0.50241864, -0.86715102, -0.42419559, 89.03437042, 116.72377014, -22.52549362, 0.00000000, 0.00000000, 0.00000000, 69.07008362, -20.82702255, -17.84191132, -0.81619996, 0.52770001, -0.23359999, -0.02430000, 0.14300001, -0.00200000, 0.08800001, 0.00000000, 0.00000000, 0.00000000, 0.00000000
2, 0.8800, 88, 0.17606583, -0.95321065, -0.14172365, -58.66657639, 135.63011169, -36.53937912, 0.00000000, 0.00000000, 0.00000000, 72.98339081, 17.89920616, -96.70957947, -0.45850000, 0.48379999, -0.35580000, -0.65489995, 0.12600000, 0.04100000, -0.13500001, 0.00000000, 0.00000000, 0.00000000, 0.00000000
3, 0.8900, 89, 0.96275866, -0.02144765, -0.26914936, -0.00000009, 0.00000004, -0.00000006, 0.00000000, 0.00000000, 0.00000000, 4.72117376, 74.30691528, -2.38923478, 0.79560000, -0.04540000, -0.60259998, 0.04140000, 0.00000000, 0.00000000, -0.00100000, 0.00000000, 0.00000000, 0.00000000, 0.00000000
1, 0.9000, 90, -0.51260900, -0.87620682, -0.41144329, 85.59422302, 114.52493286, -21.08918953, 0.00000000, 0.00000000, 0.00000000, 69.55136871, -20.22541618, -16.77620888, -0.81449997, 0.53439999, -0.22459999, -0.01880000, 0.16300000, 0.00000000, 0.08100000, 0.00000000, 0.00000000, 0.00000000, 0.00000000
3, 0.9000, 90, 0.96275866, -0.02144765, -0.26914936, -0.00000009, 0.00000004, -0.00000006, 0.00000000, 0.00000000, 0.00000000, 4.72117376, 74.30691528, -2.38923478, 0.79560000, -0.04540000, -0.60259998, 0.04140000, 0.00000000, 0.00000000, 0.00000000, 0.00000000, 0.00000000, 0.00000000, 0.00000000
1, 0.9100, 91, -0.51197362, -0.88432056, -0.38759533, 83.19824219, 112.38466644, -19.40695953, 0.00000000, 0.00000000, 0.00000000, 70.02692413, -19.65818787, -15.72769547, -0.81269997, 0.54089999, -0.21579999, -0.01330000, 0.17200001, 0.00100000, 0.06400000, 0.00000000, 0.00000000, 0.00000000, 0.00000000
1, 0.9200, 92, -0.49735287, -0.88344437, -0.36350352, 81.14936829, 110.93338013, -17.88999748, 0.00000000, 0.00000000, 0.00000000, 70.49102020, -19.11387825, -14.67918301, -0.81089997, 0.54699999, -0.20719999, -0.00780000, 0.16700001, -0.00400000, 0.04600000, 0.00000000, 0.00000000, 0.00000000, 0.00000000
2, 0.8900, 89, 0.20663679, -0.96944672, -0.12234911, -54.89385986, 140.49464417, -34.89207458, 0.00000000, 0.00000000, 0.00000000, 72.84587860, 18.64405251, -95.40323639, -0.46320000, 0.49069998, -0.34559998, -0.65200001, 0.10700001, 0.06300000, -0.15500000, 0.00000000, 0.00000000, 0.00000000, 0.00000000
3, 0.9100, 91, 0.96275866, -0.02144765, -0.26914936, -0.00000009, 0.00000004, -0.00000006, 0.00000000, 0.00000000, 0.00000000, 4.72690296, 74.30119324, -2.37777567, 0.79560000, -0.04540000, -0.60259998, 0.04140000, 0.00000000, 0.00100000, 0.00100000, 0.00000000, 0.00000000, 0.00000000, 0.00000000
1, 0.9300, 93, -0.47771218, -0.87556541, -0.34128392, 79.32344055, 109.07386017, -15.45104599, 0.00000000, 0.00000000, 0.00000000, 70.94938660, -18.60967445, -13.64785862, -0.80899996, 0.55299997, -0.19880000, -0.00230000, 0.15500000, -0.01700000, 0.03000000, 0.00000000, 0.00000000, 0.00000000, 0.00000000
2, 0.9000, 90, 0.24449942, -0.97950691, -0.12186472, -52.65248489, 143.92895508, -32.64799881, 0.00000000, 0.00000000, 0.00000000, 72.75993347, 19.38316917, -94.05105591, -0.46779999, 0.49769998, -0.33539999, -0.64870000, 0.08200000, 0.07700001, -0.15600000, 0.00000000, 0.00000000, 0.00000000, 0.00000000
2, 0.9100, 91, 0.30142874, -0.98055559, -0.12901351, -52.26440811, 141.91874695, -31.39434052, 0.00000000, 0.00000000, 0.00000000, 72.69117737, 20.10509491, -92.71032715, -0.47239998, 0.50449997, -0.32519999, -0.64529997, 0.03700000, 0.08300000, -0.14900000, 0.00000000, 0.00000000, 0.00000000, 0.00000000
3, 0.9200, 92, 0.96275866, -0.02144765, -0.26914936, -0.00000009, 0.00000004, -0.00000006, 0.00000000, 0.00000000, 0.00000000, 4.72690296, 74.30119324, -2.37777567, 0.79560000, -0.04540000, -0.60249996, 0.04140000, 0.00000000, 0.00000000, 0.00100000, 0.00000000, 0.00000000, 0.00000000, 0.00000000
1, 0.9400, 94, -0.45310456, -0.87569511, -0.31608617, 77.66646576, 106.63655090, -12.32133675, 0.00000000, 0.00000000, 0.00000000, 71.40202332, -18.14557838, -12.62226391, -0.80710000, 0.55869997, -0.19059999, 0.00330000, 0.13900001, -0.02200000, 0.01100000, 0.00000000, 0.00000000, 0.00000000, 0.00000000
3, 0.9300, 93, 0.96275866, -0.02144765, -0.26914936, -0.00000009, 0.00000004, -0.00000006, 0.00000000, 0.00000000, 0.00000000, 4.72690296, 74.30119324, -2.38350534, 0.79560000, -0.04540000, -0.60249996, 0.04140000, 0.00000000, 0.00000000, 0.00000000, 0.00000000, 0.00000000, 0.00000000, 0.00000000
1, 0.9500, 95, -0.42564040, -0.87487143, -0.28187969, 76.89025879, 105.18416595, -10.21024132, 0.00000000, 0.00000000, 0.00000000, 71.86038971, -17.72159195, -11.60812950, -0.80500001, 0.56419998, -0.18269999, 0.00900000, 0.11800001, -0.02700000, -0.01600000, 0.00000000, 0.00000000, 0.00000000, 0.00000000
3, 0.9400, 94, 0.96275866, -0.02144765, -0.26914936, -0.00000009, 0.00000004, -0.00000006, 0.00000000, 0.00000000, 0.00000000, 4.71544409, 74.30119324, -2.38923478, 0.79560000, -0.04540000, -0.60249996, 0.04140000, 0.00000000, -0.00100000, 0.00000000, 0.00000000, 0.00000000, 0.00000000, 0.00000000
1, 0.9600, 96, -0.39628112, -0.86808354, -0.24162117, 76.01058197, 105.11905670, -9.70640087, 0.00000000, 0.00000000, 0.00000000, 72.31302643, -17.30333138, -10.58826351, -0.80289996, 0.56959999, -0.17479999, 0.01470000, 0.09600000, -0.03800000, -0.04900000, 0.00000000, 0.00000000, 0.00000000, 0.00000000
2, 0.9200, 92, 0.34462214, -0.99138755, -0.14953303, -52.41123581, 136.08956909, -29.60471344, 0.00000000, 0.00000000, 0.00000000, 72.62242126, 20.79264450, -91.41545105, -0.47689998, 0.51080000, -0.31529999, -0.64190000, 0.00600000, 0.09800000, -0.12900001, 0.00000000, 0.00000000, 0.00000000, 0.00000000
3, 0.9500, 95, 0.96275866, -0.02144765, -0.26914936, -0.00000009, 0.00000004, -0.00000006, 0.00000000, 0.00000000, 0.00000000, 4.71544409, 74.30119324, -2.38923478, 0.79560000, -0.04540000, -0.60249996, 0.04140000, 0.00000000, 0.00000000, 0.00000000, 0.00000000, 0.00000000, 0.00000000, 0.00000000
1, 0.9700, 97, -0.36979762, -0.86025584, -0.20935802, 75.72247314, 106.72837830, -10.68351078, 0.00000000, 0.00000000, 0.00000000, 72.77139282, -16.88507271, -9.55693913, -0.80070001, 0.57489997, -0.16659999, 0.02040000, 0.07600001, -0.05100000, -0.07600001, 0.00000000, 0.00000000, 0.00000000, 0.00000000
2, 0.9300, 93, 0.39308524, -0.97314167, -0.18671793, -52.18717957, 126.23768616, -28.87472725, 0.00000000, 0.00000000, 0.00000000, 72.53075409, 21.44581795, -90.21796417, -0.48099998, 0.51639998, -0.30579999, -0.63889998, -0.03100000, 0.08400001, -0.09100001, 0.00000000, 0.00000000, 0.00000000, 0.00000000
3, 0.9600, 96, 0.96275866, -0.02144765, -0.26914936, -0.00000009, 0.00000004, -0.00000006, 0.00000000, 0.00000000, 0.00000000, 4.72117376, 74.30119324, -2.38350534, 0.79560000, -0.04540000, -0.60249996, 0.04140000, 0.00000000, 0.00000000, 0.00000000, 0.00000000, 0.00000000, 0.00000000, 0.00000000
2, 0.9400, 94, 0.41227198, -0.94312477, -0.20114729, -52.99389648, 111.96784973, -29.34406090, 0.00000000, 0.00000000, 0.00000000, 72.39324188, 22.06461143, -89.16371918, -0.48479998, 0.52120000, -0.29679999, -0.63639998, -0.04100000, 0.05800000, -0.07800000, 0.00000000, 0.00000000, 0.00000000, 0.00000000
3, 0.9700, 97, 0.96275866, -0.02144765, -0.26914936, -0.00000009, 0.00000004, -0.00000006, 0.00000000, 0.00000000, 0.00000000, 4.72117376, 74.30119324, -2.38350534, 0.79560000, -0.04540000, -0.60249996, 0.04140000, 0.00000000, 0.00000000, 0.00000000, 0.00000000, 0.00000000, 0.00000000, 0.00000000
1, 0.9800, 98, -0.34432673, -0.86342835, -0.17520988, 76.50772095, 108.47434998, -13.59842873, 0.00000000, 0.00000000, 0.00000000, 73.23548889, -16.43816376, -8.51415539, -0.79850000, 0.58019996, -0.15820000, 0.02600000, 0.05800000, -0.05200000, -0.10300001, 0.00000000, 0.00000000, 0.00000000, 0.00000000
3, 0.9800, 98, 0.96276802, -0.02244201, -0.26915801, -0.00000009, 0.00000004, -0.00000006, 0.00000000, 0.00000000, 0.00000000, 4.72690296, 74.30119324, -2.38350534, 0.79560000, -0.04540000, -0.60249996, 0.04140000, 0.00000000, 0.00000000, -0.00100000, 0.00000000, 0.00000000, 0.00000000, 0.00000000
1, 0.9900, 99, -0.32089484, -0.88060814, -0.13722247, 78.17815399, 109.31286621, -16.96232986, 0.00000000, 0.00000000, 0.00000000, 73.72823334, -15.96261024, -7.47137213, -0.79600000, 0.58559996, -0.14960000, 0.03140000, 0.04300000, -0.04000000, -0.13400000, 0.00000000, 0.00000000, 0.00000000, 0.00000000
2, 0.9500, 95, 0.39537266, -0.90519261, -0.20300750, -52.85195541, 100.61626434, -27.24882507, 0.00000000, 0.00000000, 0.00000000, 72.22708130, 22.63183975, -88.21261597, -0.48819998, 0.52529997, -0.28839999, -0.63429999, -0.01400000, 0.02500000, -0.07700001, 0.00000000, 0.00000000, 0.00000000, 0.00000000
2, 0.9600, 96, 0.35737860, -0.88725078, -0.19537815, -51.50441742, 92.88535309, -23.90040207, 0.00000000, 0.00000000, 0.00000000, 72.05519104, 23.14177322, -87.33598328, -0.49159998, 0.52880001, -0.28049999, -0.63239998, 0.03200000, 0.01100000, -0.08700000, 0.00000000, 0.00000000, 0.00000000, 0.00000000
2, 0.9700, 97, 0.32700419, -0.88650668, -0.16673709, -49.49428558, 89.94979095, -21.71002197, 0.00000000, 0.00000000, 0.00000000, 71.90049744, 23.62878609, -86.47654724, -0.49480000, 0.53209996, -0.27289999, -0.63029999, 0.07000000, 0.01400000, -0.11600000, 0.00000000, 0.00000000, 0.00000000, 0.00000000
1, 1.0000, 100, -0.30455282, -0.89181727, -0.09428577, 80.55348969, 109.75630951, -20.60406876, 0.00000000, 0.00000000, 0.00000000, 74.25535583, -15.46413612, -6.43431807, -0.79329997, 0.59109998, -0.14060000, 0.03670000, 0.03400000, -0.03300000, -0.16900001, 0.00000000, 0.00000000, 0.00000000, 0.00000000
3, 0.9900, 99, 0.96276802, -0.02244201, -0.26915801, -0.00000009, 0.00000004, -0.00000006, 0.00000000, 0.00000000, 0.00000000, 4.72690296, 74.30119324, -2.37777567, 0.79560000, -0.04540000, -0.60249996, 0.04140000, -0.00100000, 0.00000000, 0.00000000, 0.00000000, 0.00000000, 0.00000000, 0.00000000
2, 0.9800, 98, 0.32157412, -0.88380951, -0.13969117, -46.55487061, 90.64911652, -19.18950653, 0.00000000, 0.00000000, 0.00000000, 71.79164124, 24.09288216, -85.59992218, -0.49809998, 0.53560001, -0.26549998, -0.62799996, 0.08300000, 0.01500000, -0.14400001, 0.00000000, 0.00000000, 0.00000000, 0.00000000
3, 1.0000, 100, 0.96276802, -0.02244201, -0.26915801, -0.00000009, 0.00000004, -0.00000006, 0.00000000, 0.00000000, 0.00000000, 4.73836279, 74.30119324, -2.37204623, 0.79560000, -0.04540000, -0.60249996, 0.04140000, 0.00000000, 0.00100000, 0.00000000, 0.00000000, 0.00000000, 0.00000000, 0.00000000
1, 1.0100, 101, -0.28896320, -0.88195443, -0.06910808, 82.50636292, 110.58977509, -23.33137703, 0.00000000, 0.00000000, 0.00000000, 74.81111908, -14.94274426, -5.39726448, -0.79039997, 0.59670001, -0.13149999, 0.04180000, 0.02800000, -0.04800000, -0.18600000, 0.00000000, 0.00000000, 0.00000000, 0.00000000
2, 0.9900, 99, 0.30609059, -0.91502488, -0.10815269, -44.31887817, 92.82077026, -19.94181442, 0.00000000, 0.00000000, 0.00000000, 71.71714783, 24.56843758, -84.70037842, -0.50119996, 0.53920001, -0.25810000, -0.62549996, 0.10600001, 0.05000000, -0.17600001, 0.00000000, 0.00000000, 0.00000000, 0.00000000
2, 1.0000, 100, 0.33141023, -0.95036256, -0.07300785, -45.99637222, 93.69191742, -21.05210876, 0.00000000, 0.00000000, 0.00000000, 71.64266205, 25.06691170, -83.78937531, -0.50430000, 0.54269999, -0.25049999, -0.62309998, 0.08900000, 0.08900000, -0.21100001, 0.00000000, 0.00000000, 0.00000000, 0.00000000
2, 1.0100, 101, 0.34909722, -0.94858402, -0.05765462, -47.30725861, 95.49290466, -19.73735046, 0.00000000, 0.00000000, 0.00000000, 71.57391357, 25.55392456, -82.85545349, -0.50749999, 0.54629999, -0.24280000, -0.62040001, 0.07800000, 0.09200001, -0.22700001, 0.00000000, 0.00000000, 0.00000000, 0.00000000
1, 1.0200, 102, -0.26424268, -0.84705997, -0.05456381, 83.69482422, 111.41516113, -25.49545288, 0.00000000, 0.00000000, 0.00000000, 75.37834930, -14.40989208, -4.34875107, -0.78740001, 0.60229999, -0.12220000, 0.04680000, 0.01200000, -0.08700000, -0.19200000, 0.00000000, 0.00000000, 0.00000000, 0.00000000
3, 1.0100, 101, 0.96276802, -0.02244201, -0.26915801, -0.00000009, 0.00000004, -0.00000006, 0.00000000, 0.00000000, 0.00000000, 4.73263311, 74.30119324, -2.37204623, 0.79560000, -0.04540000, -0.60249996, 0.04140000, -0.00100000, 0.00000000, 0.00000000, 0.00000000, 0.00000000, 0.00000000, 0.00000000
3, 1.0200, 102, 0.96275866, -0.02144765, -0.26914936, -0.00000009, 0.00000004, -0.00000006, 0.00000000, 0.00000000, 0.00000000, 4.72690296, 74.30119324, -2.37777567, 0.79560000, -0.04540000, -0.60249996, 0.04140000, 0.00000000, -0.00100000, 0.00000000, 0.00000000, 0.00000000, 0.00000000, 0.00000000
1, 1.0300, 103, -0.24039423, -0.81312418, -0.04800853, 84.18038940, 112.80937195, -27.61111641, 0.00000000, 0.00000000, 0.00000000, 75.96276855, -13.86558342, -3.29450822, -0.78419995, 0.60789996, -0.11260000, 0.05170000, -0.00200000, -0.12600000, -0.19000001, 0.00000000, 0.00000000, 0.00000000, 0.00000000
1, 1.0400, 104, -0.21027903, -0.78710181, -0.05738835, 82.96459198, 115.68164825, -29.46103096, 0.00000000, 0.00000000, 0.00000000, 76.54145813, -13.29835510, -2.20588827, -0.78099996, 0.61329997, -0.10270000, 0.05660000, -0.02300000, -0.15700001, -0.17100000, 0.00000000, 0.00000000, 0.00000000, 0.00000000
2, 1.0200, 102, 0.37198862, -0.91179359, -0.05488819, -50.67683411, 95.91394806, -21.10711479, 0.00000000, 0.00000000, 0.00000000, 71.47650909, 26.05812836, -81.92153168, -0.51080000, 0.54960001, -0.23480000, -0.61780000, 0.06400000, 0.05800000, -0.22900002, 0.00000000, 0.00000000, 0.00000000, 0.00000000
3, 1.0300, 103, 0.96275866, -0.02144765, -0.26914936, -0.00000009, 0.00000004, -0.00000006, 0.00000000, 0.00000000, 0.00000000, 4.72117376, 74.30119324, -2.38923478, 0.79560000, -0.04540000, -0.60249996, 0.04140000, 0.00000000, 0.00000000, 0.00000000, 0.00000000, 0.00000000, 0.00000000, 0.00000000
2, 1.0300, 103, 0.37587100, -0.84013450, -0.04702198, -50.52297211, 97.14057922, -23.21999550, 0.00000000, 0.00000000, 0.00000000, 71.39056396, 26.58525085, -80.97615051, -0.51389998, 0.55309999, -0.22659999, -0.61519998, 0.06800000, -0.00800000, -0.23800001, 0.00000000, 0.00000000, 0.00000000, 0.00000000
2, 1.0400, 104, 0.37559745, -0.79149795, -0.02943351, -49.87568665, 95.54400635, -26.72576332, 0.00000000, 0.00000000, 0.00000000, 71.31034851, 27.14674759, -80.05368805, -0.51669997, 0.55649996, -0.21840000, -0.61269999, 0.07600001, -0.05200000, -0.25500003, 0.00000000, 0.00000000, 0.00000000, 0.00000000
3, 1.0400, 104, 0.96275866, -0.02144765, -0.26914936, -0.00000009, 0.00000004, -0.00000006, 0.00000000, 0.00000000, 0.00000000, 4.71544409, 74.30119324, -2.38923478, 0.79560000, -0.04540000, -0.60249996, 0.04140000, 0.00000000, 0.00000000, 0.00000000, 0.00000000, 0.00000000, 0.00000000, 0.00000000
1, 1.0500, 105, -0.20174001, -0.77893430, -0.09208628, 82.03661346, 118.32291412, -30.96232033, 0.00000000, 0.00000000, 0.00000000, 77.10868073, -12.73112583, -1.10007930, -0.77770001, 0.61849999, -0.09260000, 0.06160000, -0.02100000, -0.16900001, -0.12800001, 0.00000000, 0.00000000, 0.00000000, 0.00000000
2, 1.0500, 105, 0.40420365, -0.74394161, -0.01040013, -49.43220520, 91.64722443, -28.58731270, 0.00000000, 0.00000000, 0.00000000, 71.21867371, 27.70824814, -79.18279266, -0.51929998, 0.55970001, -0.21020000, -0.61049998, 0.05700000, -0.09500001, -0.27400002, 0.00000000, 0.00000000, 0.00000000, 0.00000000
3, 1.0500, 105, 0.96275866, -0.02144765, -0.26914936, -0.00000009, 0.00000004, -0.00000006, 0.00000000, 0.00000000, 0.00000000, 4.70971441, 74.30119324, -2.39496446, 0.79560000, -0.04530000, -0.60249996, 0.04140000, 0.00000000, 0.00000000, 0.00000000, 0.00000000, 0.00000000, 0.00000000, 0.00000000
1, 1.0600, 106, -0.22304457, -0.79870176, -0.13435470, 79.68180847, 122.08699036, -30.81506729, 0.00000000, 0.00000000, 0.00000000, 77.65872192, -12.16389751, 0.04583664, -0.77449995, 0.62349999, -0.08220000, 0.06670000, 0.00900000, -0.15400001, -0.07700001, 0.00000000, 0.00000000, 0.00000000, 0.00000000
1, 1.0700, 107, -0.24813721, -0.81340265, -0.19057202, 75.64959717, 130.69403076, -29.47257042, 0.00000000, 0.00000000, 0.00000000, 78.16292572, -11.60239983, 1.28915548, -0.77139997, 0.62799996, -0.07130000, 0.07240000, 0.04400000, -0.14300001, -0.01200000, 0.00000000, 0.00000000, 0.00000000, 0.00000000
2, 1.0600, 106, 0.43702611, -0.70719880, -0.00547093, -50.34941483, 88.13658142, -29.60544395, 0.00000000, 0.00000000, 0.00000000, 71.10408020, 28.27547646, -78.34627533, -0.52179998, 0.56259996, -0.20209999, -0.60839999, 0.03200000, -0.12700000, -0.28000000, 0.00000000, 0.00000000, 0.00000000, 0.00000000
2, 1.0700, 107, 0.47723722, -0.67915970, -0.02561470, -53.51560974, 86.82408142, -29.20536804, 0.00000000, 0.00000000, 0.00000000, 70.96657562, 28.83697701, -77.51548004, -0.52440000, 0.56529999, -0.19380000, -0.60640001, 0.00100000, -0.15000001, -0.25900000, 0.00000000, 0.00000000, 0.00000000, 0.00000000
2, 1.0800, 108, 0.51060754, -0.64304078, -0.05380807, -58.05059052, 85.94758606, -27.50216675, 0.00000000, 0.00000000, 0.00000000, 70.78895569, 29.37555313, -76.69042969, -0.52719998, 0.56760001, -0.18539999, -0.60439998, -0.02300000, -0.18100001, -0.23200001, 0.00000000, 0.00000000, 0.00000000, 0.00000000
3, 1.0600, 106, 0.96275866, -0.02144765, -0.26914936, -0.00000009, 0.00000004, -0.00000006, 0.00000000, 0.00000000, 0.00000000, 4.70971441, 74.30119324, -2.39496446, 0.79560000, -0.04530000, -0.60249996, 0.04140000, -0.00100000, 0.00000000, 0.00000000, 0.00000000, 0.00000000, 0.00000000, 0.00000000
1, 1.0800, 108, -0.26321653, -0.81710500, -0.24856767, 69.33175659, 142.09666443, -28.32937813, 0.00000000, 0.00000000, 0.00000000, 78.58691406, -11.03517056, 2.65279531, -0.76859999, 0.63190001, -0.05980000, 0.07870000, 0.06800000, -0.14300001, 0.05200000, 0.00000000, 0.00000000, 0.00000000, 0.00000000
2, 1.0900, 109, 0.51991391, -0.60795993, -0.07335617, -60.06853867, 82.91475677, -22.50343513, 0.00000000, 0.00000000, 0.00000000, 70.58842468, 29.86256981, -75.87682343, -0.53039998, 0.56959999, -0.17729999, -0.60219997, -0.02500000, -0.21100001, -0.21400002, 0.00000000, 0.00000000, 0.00000000, 0.00000000
3, 1.0700, 107, 0.96275866, -0.02144765, -0.26914936, -0.00000009, 0.00000004, -0.00000006, 0.00000000, 0.00000000, 0.00000000, 4.70971441, 74.30119324, -2.40069389, 0.79560000, -0.04530000, -0.60249996, 0.04150000, 0.00100000, 0.00000000, 0.00000000, 0.00000000, 0.00000000, 0.00000000, 0.00000000
1, 1.0900, 109, -0.26445615, -0.82785857, -0.29550138, 61.39195633, 152.17802429, -27.15697861, 0.00000000, 0.00000000, 0.00000000, 78.93068695, -10.47367191, 4.11956787, -0.76620001, 0.63499999, -0.04760000, 0.08560000, 0.07900000, -0.13500001, 0.10500000, 0.00000000, 0.00000000, 0.00000000, 0.00000000
2, 1.1000, 110, 0.52117550, -0.61077124, -0.08942725, -59.15667343, 77.38047028, -17.70872688, 0.00000000, 0.00000000, 0.00000000, 70.38789368, 30.28655815, -75.10333252, -0.53350002, 0.57110000, -0.16970000, -0.60009998, -0.01900000, -0.20300001, -0.19800001, 0.00000000, 0.00000000, 0.00000000, 0.00000000
3, 1.0800, 108, 0.96275866, -0.02144765, -0.26914936, -0.00000009, 0.00000004, -0.00000006, 0.00000000, 0.00000000, 0.00000000, 4.70971441, 74.30119324, -2.40069389, 0.79560000, -0.04540000, -0.60249996, 0.04150000, -0.00100000, 0.00000000, 0.00100000, 0.00000000, 0.00000000, 0.00000000, 0.00000000
1, 1.1000, 110, -0.25305229, -0.84172726, -0.31939766, 52.95660400, 158.48661804, -26.29003143, 0.00000000, 0.00000000, 0.00000000, 79.18852234, -9.91217327, 5.64936590, -0.76400000, 0.63739997, -0.03520000, 0.09280000, 0.07800000, -0.12400001, 0.13300000, 0.00000000, 0.00000000, 0.00000000, 0.00000000
2, 1.1100, 111, 0.53881019, -0.62329412, -0.13144511, -55.98796082, 69.83179474, -11.45916271, 0.00000000, 0.00000000, 0.00000000, 70.18735504, 30.63606262, -74.38140869, -0.53670001, 0.57239997, -0.16300000, -0.59799999, -0.03100000, -0.18700001, -0.15800001, 0.00000000, 0.00000000, 0.00000000, 0.00000000
3, 1.0900, 109, 0.96276802, -0.02244201, -0.26915801, -0.00000009, 0.00000004, -0.00000006, 0.00000000, 0.00000000, 0.00000000, 4.70971441, 74.30119324, -2.39496446, 0.79560000, -0.04540000, -0.60249996, 0.04140000, 0.00000000, 0.00100000, 0.00000000, 0.00000000, 0.00000000, 0.00000000, 0.00000000
1, 1.1100, 111, -0.23076846, -0.84963822, -0.33613923, 44.79544449, 158.50701904, -25.49395370, 0.00000000, 0.00000000, 0.00000000, 79.37759399, -9.36786270, 7.18489265, -0.76209998, 0.63909996, -0.02280000, 0.10010000, 0.06500001, -0.11800001, 0.15300001, 0.00000000, 0.00000000, 0.00000000, 0.00000000
2, 1.1200, 112, 0.52359325, -0.64866632, -0.17612538, -54.58018875, 60.39542770, -8.18065453, 0.00000000, 0.00000000, 0.00000000, 69.96389771, 30.91681480, -73.75688171, -0.53990000, 0.57300001, -0.15689999, -0.59609997, -0.01200000, -0.15700001, -0.11600000, 0.00000000, 0.00000000, 0.00000000, 0.00000000
2, 1.1300, 113, 0.48577315, -0.67974550, -0.24029374, -53.56129074, 52.45652390, -6.10241890, 0.00000000, 0.00000000, 0.00000000, 69.71179962, 31.15745544, -73.20111084, -0.54299998, 0.57330000, -0.15130000, -0.59450001, 0.02900000, -0.12300000, -0.05400000, 0.00000000, 0.00000000, 0.00000000, 0.00000000
3, 1.1000, 110, 0.96275866, -0.02144765, -0.26914936, -0.00000009, 0.00000004, -0.00000006, 0.00000000, 0.00000000, 0.00000000, 4.70971441, 74.30119324, -2.39496446, 0.79560000, -0.04530000, -0.60249996, 0.04140000, 0.00000000, 0.00000000, 0.00000000, 0.00000000, 0.00000000, 0.00000000, 0.00000000
1, 1.1200, 112, -0.20966843, -0.84261250, -0.34280211, 37.43189240, 149.88572693, -23.61768723, 0.00000000, 0.00000000, 0.00000000, 79.52083588, -8.86365986, 8.63447666, -0.76049995, 0.64029998, -0.01120000, 0.10690000, 0.05200000, -0.12700000, 0.16300000, 0.00000000, 0.00000000, 0.00000000, 0.00000000
2, 1.1400, 114, 0.43707767, -0.69678962, -0.30949894, -51.70498657, 46.18293762, -5.08928299, 0.00000000, 0.00000000, 0.00000000, 69.44823456, 31.36371994, -72.71982574, -0.54589999, 0.57330000, -0.14620000, -0.59310001, 0.08200000, -0.10300001, 0.01100000, 0.00000000, 0.00000000, 0.00000000, 0.00000000
3, 1.1100, 111, 0.96275866, -0.02144765, -0.26914936, -0.00000009, 0.00000004, -0.00000006, 0.00000000, 0.00000000, 0.00000000, 4.70971441, 74.30119324, -2.39496446, 0.79560000, -0.04540000, -0.60249996, 0.04150000, 0.00000000, 0.00000000, 0.00000000, 0.00000000, 0.00000000, 0.00000000, 0.00000000
1, 1.1300, 113, -0.19359495, -0.82959652, -0.34847623, 32.34344864, 135.01513672, -19.13757515, 0.00000000, 0.00000000, 0.00000000, 79.64688873, -8.42821217, 9.94082165, -0.75889999, 0.64120001, -0.00080000, 0.11319999, 0.04400000, -0.14200000, 0.17000000, 0.00000000, 0.00000000, 0.00000000, 0.00000000
1, 1.1400, 114, -0.18041302, -0.81554574, -0.36114964, 28.41212273, 108.69683075, -13.00480556, 0.00000000, 0.00000000, 0.00000000, 79.77866364, -8.10735512, 11.00079346, -0.75739998, 0.64190000, 0.00730000, 0.11849999, 0.03700000, -0.15700001, 0.18500000, 0.00000000, 0.00000000, 0.00000000, 0.00000000
2, 1.1500, 115, 0.39041013, -0.70385116, -0.38057134, -48.31376648, 42.42370987, -4.89404583, 0.00000000, 0.00000000, 0.00000000, 69.19613647, 31.55852509, -72.27291870, -0.54859996, 0.57330000, -0.14139999, -0.59179997, 0.13100001, -0.09200001, 0.07900000, 0.00000000, 0.00000000, 0.00000000, 0.00000000
3, 1.1200, 112, 0.96276802, -0.02244201, -0.26915801, -0.00000009, 0.00000004, -0.00000006, 0.00000000, 0.00000000, 0.00000000, 4.71544409, 74.30119324, -2.39496446, 0.79560000, -0.04540000, -0.60249996, 0.04150000, 0.00100000, 0.00000000, 0.00000000, 0.00000000, 0.00000000, 0.00000000, 0.00000000
1, 1.1500, 115, -0.16904232, -0.81942827, -0.38396326, 26.46203995, 83.59323120, -7.58590984, 0.00000000, 0.00000000, 0.00000000, 79.92763519, -7.88390160, 11.82012272, -0.75589997, 0.64279997, 0.01350000, 0.12260000, 0.03000000, -0.15500000, 0.21000001, 0.00000000, 0.00000000, 0.00000000, 0.00000000
2, 1.1600, 116, 0.35858852, -0.71600050, -0.44544360, -43.76072311, 38.59964752, -4.22188473, 0.00000000, 0.00000000, 0.00000000, 68.97267914, 31.73614311, -71.86611938, -0.55100000, 0.57319999, -0.13710000, -0.59060001, 0.16500001, -0.07800000, 0.14100000, 0.00000000, 0.00000000, 0.00000000, 0.00000000
3, 1.1300, 113, 0.96276802, -0.02244201, -0.26915801, -0.00000009, 0.00000004, -0.00000006, 0.00000000, 0.00000000, 0.00000000, 4.71544409, 74.30119324, -2.39496446, 0.79560000, -0.04540000, -0.60249996, 0.04140000, -0.00100000, 0.00000000, 0.00000000, 0.00000000, 0.00000000, 0.00000000, 0.00000000
1, 1.1600, 116, -0.14282662, -0.83335960, -0.39572909, 24.93046570, 60.16456985, -3.76555371, 0.00000000, 0.00000000, 0.00000000, 80.09952545, -7.74639177, 12.41026974, -0.75449997, 0.64379996, 0.01790000, 0.12570000, 0.00700000, -0.14100000, 0.22400001, 0.00000000, 0.00000000, 0.00000000, 0.00000000
2, 1.1700, 117, 0.33827704, -0.72051263, -0.48295060, -36.95569992, 34.69147873, -1.85003710, 0.00000000, 0.00000000, 0.00000000, 68.79505920, 31.87938309, -71.49369812, -0.55320001, 0.57319999, -0.13339999, -0.58939999, 0.18900001, -0.07100000, 0.17700000, 0.00000000, 0.00000000, 0.00000000, 0.00000000
1, 1.1700, 117, -0.11162820, -0.85529476, -0.40551284, 23.63199234, 40.92991638, -1.94191051, 0.00000000, 0.00000000, 0.00000000, 80.27713776, -7.65471840, 12.81707001, -0.75309998, 0.64489996, 0.02100000, 0.12789999, -0.02200000, -0.12000000, 0.23700002, 0.00000000, 0.00000000, 0.00000000, 0.00000000
2, 1.1800, 118, 0.31178701, -0.72913134, -0.50855392, -28.71101761, 34.17626190, 1.77683020, 0.00000000, 0.00000000, 0.00000000, 68.70911407, 31.98251534, -71.11554718, -0.55509996, 0.57359999, -0.13040000, -0.58789998, 0.21700001, -0.06000000, 0.20100001, 0.00000000, 0.00000000, 0.00000000, 0.00000000
3, 1.1400, 114, 0.96275866, -0.02144765, -0.26914936, -0.00000009, 0.00000004, -0.00000006, 0.00000000, 0.00000000, 0.00000000, 4.70971441, 74.30119324, -2.40069389, 0.79560000, -0.04540000, -0.60249996, 0.04150000, 0.00000000, 0.00000000, 0.00000000, 0.00000000, 0.00000000, 0.00000000, 0.00000000
1, 1.1800, 118, -0.11923480, -0.87316191, -0.42867291, 23.74754715, 27.93208504, -0.02195058, 0.00000000, 0.00000000, 0.00000000, 80.47194672, -7.60888195, 13.09781933, -0.75180000, 0.64599997, 0.02310000, 0.12940000, -0.01300000, -0.10300001, 0.26400000, 0.00000000, 0.00000000, 0.00000000, 0.00000000
3, 1.1500, 115, 0.96275866, -0.02144765, -0.26914936, -0.00000009, 0.00000004, -0.00000006, 0.00000000, 0.00000000, 0.00000000, 4.70971441, 74.30119324, -2.40069389, 0.79560000, -0.04540000, -0.60249996, 0.04150000, -0.00100000, 0.00000000, 0.00000000, 0.00000000, 0.00000000, 0.00000000, 0.00000000
1, 1.1900, 119, -0.13517165, -0.89213234, -0.43101919, 25.91076088, 21.22604561, 2.46395779, 0.00000000, 0.00000000, 0.00000000, 80.68393707, -7.59742260, 13.32127285, -0.75029999, 0.64739996, 0.02470000, 0.13079999, 0.00300000, -0.08400001, 0.26900002, 0.00000000, 0.00000000, 0.00000000, 0.00000000
2, 1.1900, 119, 0.27336866, -0.76161349, -0.53661126, -21.59105873, 38.82802963, 6.05865765, 0.00000000, 0.00000000, 0.00000000, 68.73204041, 32.06272888, -70.66291046, -0.55699998, 0.57440001, -0.12770000, -0.58599997, 0.25600001, -0.02700000, 0.22900002, 0.00000000, 0.00000000, 0.00000000, 0.00000000
3, 1.1600, 116, 0.96275866, -0.02144765, -0.26914936, -0.00000009, 0.00000004, -0.00000006, 0.00000000, 0.00000000, 0.00000000, 4.70398474, 74.30119324, -2.40642357, 0.79560000, -0.04540000, -0.60249996, 0.04150000, 0.00000000, 0.00000000, 0.00000000, 0.00000000, 0.00000000, 0.00000000, 0.00000000
1, 1.2000, 120, -0.14033352, -0.89918065, -0.42018247, 29.94837189, 21.32909775, 5.16972685, 0.00000000, 0.00000000, 0.00000000, 80.94177246, -7.61461163, 13.55045605, -0.74860001, 0.64910001, 0.02620000, 0.13229999, 0.00800000, -0.07900000, 0.26300001, 0.00000000, 0.00000000, 0.00000000, 0.00000000
3, 1.1700, 117, 0.96275866, -0.02144765, -0.26914936, -0.00000009, 0.00000004, -0.00000006, 0.00000000, 0.00000000, 0.00000000, 4.70398474, 74.30119324, -2.40642357, 0.79560000, -0.04540000, -0.60249996, 0.04150000, -0.00100000, 0.00000000, 0.00000000, 0.00000000, 0.00000000, 0.00000000, 0.00000000
1, 1.2100, 121, -0.12566705, -0.89729041, -0.39907014, 38.43446732, 24.75559998, 8.81446648, 0.00000000, 0.00000000, 0.00000000, 81.28555298, -7.66617775, 13.81401730, -0.74629998, 0.65120000, 0.02780000, 0.13419999, -0.00600000, -0.08100000, 0.24600001, 0.00000000, 0.00000000, 0.00000000, 0.00000000
2, 1.2000, 120, 0.24124539, -0.78891367, -0.58358508, -17.73919487, 47.07353973, 9.80127335, 0.00000000, 0.00000000, 0.00000000, 68.84089661, 32.13148117, -70.11286163, -0.55890000, 0.57569999, -0.12510000, -0.58329999, 0.28900000, 0.00000000, 0.27700001, 0.00000000, 0.00000000, 0.00000000, 0.00000000
3, 1.1800, 118, 0.96275866, -0.02144765, -0.26914936, -0.00000009, 0.00000004, -0.00000006, 0.00000000, 0.00000000, 0.00000000, 4.69825506, 74.30119324, -2.40642357, 0.79560000, -0.04530000, -0.60249996, 0.04150000, 0.00000000, 0.00000000, 0.00000000, 0.00000000, 0.00000000, 0.00000000, 0.00000000
1, 1.2200, 122, -0.07594884, -0.90538681, -0.37962171, 47.57239151, 29.58754921, 15.23224735, 0.00000000, 0.00000000, 0.00000000, 81.71526337, -7.76931047, 14.13487339, -0.74339998, 0.65399998, 0.02940000, 0.13679999, -0.05700000, -0.07400000, 0.23400001, 0.00000000, 0.00000000, 0.00000000, 0.00000000
2, 1.2100, 121, 0.21744089, -0.82396859, -0.65159202, -15.08321381, 57.33955383, 11.64607143, 0.00000000, 0.00000000, 0.00000000, 69.05289459, 32.22888565, -69.43104553, -0.56089997, 0.57779998, -0.12210000, -0.58010000, 0.31400001, 0.03400000, 0.34800002, 0.00000000, 0.00000000, 0.00000000, 0.00000000
3, 1.1900, 119, 0.96275866, -0.02144765, -0.26914936, -0.00000009, 0.00000004, -0.00000006, 0.00000000, 0.00000000, 0.00000000, 4.69825506, 74.30119324, -2.40642357, 0.79560000, -0.04530000, -0.60259998, 0.04150000, 0.00000000, 0.00000000, 0.00000000, 0.00000000, 0.00000000, 0.00000000, 0.00000000
1, 1.2300, 123, -0.04704671, -0.92041838, -0.37143949, 54.47869492, 36.40817261, 22.13909912, 0.00000000, 0.00000000, 0.00000000, 82.19655609, -7.93546772, 14.53021431, -0.73989999, 0.65709996, 0.03120000, 0.14019999, -0.08900000, -0.05900000, 0.23400001, 0.00000000, 0.00000000, 0.00000000, 0.00000000
3, 1.2000, 120, 0.96275866, -0.02144765, -0.26914936, -0.00000009, 0.00000004, -0.00000006, 0.00000000, 0.00000000, 0.00000000, 4.69825506, 74.30119324, -2.41215301, 0.79560000, -0.04530000, -0.60249996, 0.04150000, -0.00100000, 0.00100000, 0.00100000, 0.00000000, 0.00000000, 0.00000000, 0.00000000
3, 1.2100, 121, 0.96276802, -0.02244201, -0.26915801, -0.00000009, 0.00000004, -0.00000006, 0.00000000, 0.00000000, 0.00000000, 4.69825506, 74.30119324, -2.40642357, 0.79560000, -0.04530000, -0.60249996, 0.04150000, 0.00100000, 0.00100000, 0.00000000, 0.00000000, 0.00000000, 0.00000000, 0.00000000
1, 1.2400, 124, -0.04908920, -0.93242753, -0.36758292, 59.84793854, 46.42335129, 29.26149559, 0.00000000, 0.00000000, 0.00000000, 82.72367096, -8.16465092, 15.03441811, -0.73600000, 0.66039997, 0.03320000, 0.14459999, -0.09000000, -0.04800000, 0.23800001, 0.00000000, 0.00000000, 0.00000000, 0.00000000
2, 1.2200, 122, 0.19543050, -0.85617471, -0.70749456, -13.42251682, 67.32113647, 13.53064632, 0.00000000, 0.00000000, 0.00000000, 69.34510040, 32.34347534, -68.62890625, -0.56299996, 0.58039999, -0.11880000, -0.57609999, 0.33800003, 0.06600000, 0.40800002, 0.00000000, 0.00000000, 0.00000000, 0.00000000
3, 1.2200, 122, 0.96275866, -0.02144765, -0.26914936, -0.00000009, 0.00000004, -0.00000006, 0.00000000, 0.00000000, 0.00000000, 4.69252586, 74.30119324, -2.41215301, 0.79560000, -0.04530000, -0.60259998, 0.04150000, 0.00000000, 0.00000000, -0.00100000, 0.00000000, 0.00000000, 0.00000000, 0.00000000
1, 1.2500, 125, -0.04147412, -0.92855299, -0.34354806, 64.82623291, 59.50953293, 37.99608994, 0.00000000, 0.00000000, 0.00000000, 83.27371216, -8.46831894, 15.68185997, -0.73159999, 0.66389996, 0.03570000, 0.15030000, -0.10300001, -0.05300000, 0.22400001, 0.00000000, 0.00000000, 0.00000000, 0.00000000
2, 1.2300, 123, 0.19611274, -0.84873623, -0.74855745, -13.43538857, 78.46173859, 14.07753181, 0.00000000, 0.00000000, 0.00000000, 69.70606232, 32.48098755, -67.70071411, -0.56519997, 0.58349997, -0.11499999, -0.57159996, 0.34000000, 0.05800000, 0.45400003, 0.00000000, 0.00000000, 0.00000000, 0.00000000
3, 1.2300, 123, 0.96275866, -0.02144765, -0.26914936, -0.00000009, 0.00000004, -0.00000006, 0.00000000, 0.00000000, 0.00000000, 4.69825506, 74.30119324, -2.40642357, 0.79560000, -0.04530000, -0.60259998, 0.04150000, -0.00100000, 0.00000000, 0.00000000, 0.00000000, 0.00000000, 0.00000000, 0.00000000
1, 1.2600, 126, -0.00909826, -0.89476949, -0.30700436, 68.93811798, 74.83747864, 45.17172623, 0.00000000, 0.00000000, 0.00000000, 83.84094238, -8.83501244, 16.48400116, -0.72670001, 0.66740000, 0.03870000, 0.15730000, -0.14200000, -0.08700000, 0.19700001, 0.00000000, 0.00000000, 0.00000000, 0.00000000
3, 1.2400, 124, 0.96275866, -0.02144765, -0.26914936, -0.00000009, 0.00000004, -0.00000006, 0.00000000, 0.00000000, 0.00000000, 4.70398474, 74.30119324, -2.40642357, 0.79560000, -0.04530000, -0.60259998, 0.04150000, 0.00000000, 0.00000000, 0.00000000, 0.00000000, 0.00000000, 0.00000000, 0.00000000
1, 1.2700, 127, 0.03996557, -0.84409440, -0.25218287, 72.02058411, 90.00241089, 51.06665802, 0.00000000, 0.00000000, 0.00000000, 84.40817261, -9.24754143, 17.44656944, -0.72149998, 0.67089999, 0.04250000, 0.16550000, -0.19800001, -0.13700001, 0.15300001, 0.00000000, 0.00000000, 0.00000000, 0.00000000
2, 1.2400, 124, 0.20545608, -0.79270625, -0.76988482, -14.82095146, 92.36151123, 12.78710175, 0.00000000, 0.00000000, 0.00000000, 70.14151764, 32.68152237, -66.62355042, -0.56750000, 0.58719999, -0.11030000, -0.56639999, 0.33300000, 0.00100000, 0.48200002, 0.00000000, 0.00000000, 0.00000000, 0.00000000
3, 1.2500, 125, 0.96275866, -0.02144765, -0.26914936, -0.00000009, 0.00000004, -0.00000006, 0.00000000, 0.00000000, 0.00000000, 4.70398474, 74.30119324, -2.40069389, 0.79560000, -0.04530000, -0.60259998, 0.04150000, -0.00100000, 0.00000000, 0.00000000, 0.00000000, 0.00000000, 0.00000000, 0.00000000
1, 1.2800, 128, 0.08484668, -0.79747534, -0.18549079, 75.36117554, 106.33478546, 54.55440903, 0.00000000, 0.00000000, 0.00000000, 84.98112488, -9.69444942, 18.56956863, -0.71590000, 0.67420000, 0.04710000, 0.17490000, -0.25000000, -0.18400002, 0.09600000, 0.00000000, 0.00000000, 0.00000000, 0.00000000
2, 1.2500, 125, 0.21625032, -0.70317274, -0.75770080, -16.93403435, 109.36904144, 12.88817501, 0.00000000, 0.00000000, 0.00000000, 70.66291046, 32.92216492, -65.34585571, -0.56999999, 0.59160000, -0.10470000, -0.56029999, 0.32500002, -0.08700000, 0.47700003, 0.00000000, 0.00000000, 0.00000000, 0.00000000
2, 1.2600, 126, 0.26261535, -0.62389773, -0.72700274, -20.40469742, 126.59469604, 13.65909863, 0.00000000, 0.00000000, 0.00000000, 71.25305939, 33.20291519, -63.87335587, -0.57290000, 0.59660000, -0.09820000, -0.55320001, 0.28200001, -0.16700001, 0.45500001, 0.00000000, 0.00000000, 0.00000000, 0.00000000
3, 1.2600, 126, 0.96275866, -0.02144765, -0.26914936, -0.00000009, 0.00000004, -0.00000006, 0.00000000, 0.00000000, 0.00000000, 4.69825506, 74.30119324, -2.40642357, 0.79560000, -0.04530000, -0.60259998, 0.04150000, 0.00300000, 0.00000000, 0.00000000, 0.00000000, 0.00000000, 0.00000000, 0.00000000
2, 1.2700, 127, 0.32890365, -0.57456774, -0.69631773, -24.04965591, 138.70082092, 14.44447708, 0.00000000, 0.00000000, 0.00000000, 71.90622711, 33.50085449, -62.24615860, -0.57599998, 0.60179996, -0.09079999, -0.54549998, 0.22000001, -0.21700001, 0.43400002, 0.00000000, 0.00000000, 0.00000000, 0.00000000
3, 1.2700, 127, 0.96075547, -0.02146553, -0.26916695, -0.00000009, 0.00000004, -0.00000006, 0.00000000, 0.00000000, 0.00000000, 4.70398474, 74.30119324, -2.40069389, 0.79560000, -0.04530000, -0.60249996, 0.04140000, 0.00900000, -0.00100000, -0.00900000, 0.00000000, 0.00000000, 0.00000000, 0.00000000
2, 1.2800, 128, 0.37730485, -0.53113782, -0.66898859, -28.34470749, 142.77932739, 15.73093605, 0.00000000, 0.00000000, 0.00000000, 72.55366516, 33.78733063, -60.55593109, -0.57940000, 0.60699999, -0.08310000, -0.53740001, 0.17600001, -0.26000002, 0.41600001, 0.00000000, 0.00000000, 0.00000000, 0.00000000
1, 1.2900, 129, 0.12783498, -0.81280094, -0.11935939, 80.49695587, 125.12025452, 53.30504990, 0.00000000, 0.00000000, 0.00000000, 85.55981445, -10.12416744, 19.88164330, -0.70969999, 0.67750001, 0.05300000, 0.18519999, -0.30100003, -0.16800001, 0.03900000, 0.00000000, 0.00000000, 0.00000000, 0.00000000
3, 1.2800, 128, 0.95974368, -0.02148250, -0.26817358, -0.05775903, -0.05754335, -0.00084030, 0.00000000, 0.00000000, 0.00000000, 4.69825506, 74.29546356, -2.40069389, 0.79569995, -0.04530000, -0.60249996, 0.04140000, 0.00300000, 0.00000000, 0.00700000, 0.00000000, 0.00000000, 0.00000000, 0.00000000
1, 1.3000, 130, 0.16229816, -0.88395458, -0.07772512, 85.96985626, 146.69633484, 47.35488129, 0.00000000, 0.00000000, 0.00000000, 86.14423370, -10.48513126, 21.39998055, -0.70309997, 0.68059999, 0.06060000, 0.19640000, -0.34300002, -0.09600000, 0.00700000, 0.00000000, 0.00000000, 0.00000000, 0.00000000
2, 1.2900, 129, 0.37428406, -0.52186781, -0.60670149, -32.88108826, 140.75743103, 14.20902157, 0.00000000, 0.00000000, 0.00000000, 73.16100311, 34.06808090, -58.88288879, -0.58279997, 0.61179996, -0.07520000, -0.52939999, 0.18300001, -0.27000001, 0.36400002, 0.00000000, 0.00000000, 0.00000000, 0.00000000
3, 1.2900, 129, 0.95974368, -0.02148250, -0.26817358, 0.00065180, -0.05668963, -0.00050968, 0.00000000, 0.00000000, 0.00000000, 4.69252586, 74.28973389, -2.41788268, 0.79569995, -0.04530000, -0.60249996, 0.04150000, 0.00100000, 0.00200000, -0.00500000, 0.00000000, 0.00000000, 0.00000000, 0.00000000
3, 1.3000, 130, 0.96073514, -0.02148159, -0.26716265, 0.00065180, -0.05668963, -0.00050968, 0.00000000, 0.00000000, 0.00000000, 4.68106651, 74.28973389, -2.42934179, 0.79569995, -0.04530000, -0.60249996, 0.04150000, -0.00200000, -0.00200000, -0.00300000, 0.00000000, 0.00000000, 0.00000000, 0.00000000
3, 1.3100, 131, 0.96075547, -0.02146553, -0.26916695, 0.05841074, 0.00085375, 0.00033056, 0.00000000, 0.00000000, 0.00000000, 4.69252586, 74.28973389, -2.42361236, 0.79569995, -0.04530000, -0.60249996, 0.04150000, 0.00000000, 0.00200000, 0.00100000, 0.00000000, 0.00000000, 0.00000000, 0.00000000
2, 1.3000, 130, 0.33373386, -0.58867973, -0.50668299, -37.50876999, 137.79061890, 11.24250793, 0.00000000, 0.00000000, 0.00000000, 73.70531464, 34.34883118, -57.24423218, -0.58609998, 0.61610001, -0.06700000, -0.52169997, 0.22800002, -0.20300001, 0.27200001, 0.00000000, 0.00000000, 0.00000000, 0.00000000
